subj_idx,group_idx,turn_type,task_type,snr_type,trial_num,step_att,response,rt,step_unatnd
3,Left,LMC,Tone,Clear,1,3,1,1.27141710000069,1
3,Left,LMC,Tone,Clear,2,1,0,0.673255499999868,5
3,Left,LMC,Tone,Clear,3,2,0,0.574463200000537,1
3,Left,LMC,Tone,Clear,4,2,0,0.695048400000815,2
3,Left,LMC,Tone,Clear,5,3,0,0.8235382999992,5
3,Left,LMC,Tone,Clear,6,3,1,0.770192899999529,4
3,Left,LMC,Tone,Clear,7,5,1,0.570276999998896,3
3,Left,LMC,Tone,Clear,8,2,0,0.765284200000679,4
3,Left,LMC,Tone,Clear,9,4,1,0.727381000000605,4
3,Left,LMC,Tone,Clear,10,5,1,0.598866199999975,4
3,Left,LMC,Tone,Clear,11,4,1,0.562507000000551,3
3,Left,LMC,Tone,Clear,12,5,1,0.627464700000928,3
3,Left,LMC,Tone,Clear,13,2,0,0.848675000001094,2
3,Left,LMC,Tone,Clear,14,3,0,0.825598099998388,1
3,Left,LMC,Tone,Clear,15,1,0,0.616606199999296,1
3,Left,LMC,Tone,Clear,16,4,1,0.576251399999819,1
3,Left,LMC,Tone,Clear,17,3,0,0.7605566000002,4
3,Left,LMC,Tone,Clear,18,1,0,0.774771399999736,2
3,Left,LMC,Tone,Clear,19,5,1,0.685659500000838,2
3,Left,LMC,Tone,Clear,20,4,1,0.755680899999788,5
3,Left,LMC,Tone,Clear,21,4,0,1.04913959999976,2
3,Left,LMC,Tone,Clear,22,3,1,0.817644400000063,5
3,Left,LMC,Tone,Clear,23,5,1,0.609324200000628,5
3,Left,LMC,Tone,Clear,24,2,0,0.729493299999376,3
3,Left,LMC,Tone,Clear,25,1,0,0.627639500000441,3
3,Left,LMC,Tone,Clear,26,3,1,0.687663999999131,3
3,Left,LMC,Tone,Clear,27,4,1,0.652751499999795,3
3,Left,LMC,Tone,Clear,28,4,1,0.756061199999749,2
3,Left,LMC,Tone,Clear,29,2,0,0.762088199999198,3
3,Left,LMC,Tone,Clear,30,2,0,0.742604400000346,4
3,Left,LMC,Tone,Clear,31,1,0,0.599483599999076,3
3,Left,LMC,Tone,Clear,32,5,1,0.527216800001042,1
3,Left,LMC,Tone,Clear,33,3,1,0.823313099999723,3
3,Left,LMC,Tone,Clear,34,1,0,0.750840999999127,4
3,Left,LMC,Tone,Clear,35,3,1,0.752507299999706,2
3,Left,LMC,Tone,Clear,36,4,1,0.650774399999136,4
3,Left,LMC,Tone,Clear,37,2,0,0.699112199999945,5
3,Left,LMC,Tone,Clear,38,3,1,0.69790439999997,3
3,Left,LMC,Tone,Clear,39,3,1,0.663268700000117,2
3,Left,LMC,Tone,Clear,40,2,0,0.627020699999775,3
3,Left,LMC,Tone,Clear,41,3,1,0.691619799999899,3
3,Left,LMC,Tone,Clear,42,5,1,0.768048600000839,2
3,Left,LMC,Tone,Clear,43,2,0,0.882340000000113,2
3,Left,LMC,Tone,Clear,44,1,0,0.732099300001209,4
3,Left,LMC,Tone,Clear,45,2,0,0.790097700000842,1
3,Left,LMC,Tone,Clear,46,1,0,0.711420400000861,3
3,Left,LMC,Tone,Clear,47,4,1,0.755532799999855,2
3,Left,LMC,Tone,Clear,48,3,1,1.08842899999945,5
3,Left,LMC,Tone,Clear,49,4,1,0.577201699999932,4
3,Left,LMC,Tone,Clear,50,4,1,0.581252299998596,5
3,Left,LMC,Tone,Clear,51,4,1,0.530565199998819,3
3,Left,LMC,Tone,Clear,52,5,1,0.583931200000734,3
3,Left,LMC,Tone,Clear,53,3,1,0.624564800000371,1
3,Left,LMC,Tone,Clear,54,1,0,0.725642499999594,2
3,Left,LMC,Tone,Clear,55,4,1,0.749164299999393,2
3,Left,LMC,Tone,Clear,56,2,0,0.770880400001261,4
3,Left,LMC,Tone,Clear,57,2,0,0.682106300000669,2
3,Left,LMC,Tone,Clear,58,2,0,0.658980000000156,4
3,Left,LMC,Tone,Clear,59,3,1,0.685623600000326,5
3,Left,LMC,Tone,Clear,60,5,1,0.723298099999738,3
3,Left,LMC,Tone,Clear,61,3,1,0.865055000000211,4
3,Left,LMC,Tone,Clear,62,5,1,0.604112500001065,1
3,Left,LMC,Tone,Clear,63,2,0,0.564289100000678,5
3,Left,LMC,Tone,Clear,64,3,1,0.607747000000018,3
3,Left,LMC,Tone,Clear,65,4,1,0.611817400000291,4
3,Left,LMC,Tone,Clear,66,3,0,0.893126200000552,2
3,Left,LMC,Tone,Clear,67,1,0,0.651039599999422,1
3,Left,LMC,Tone,Clear,68,3,1,0.674196600000869,4
3,Left,LMC,Tone,Clear,69,1,0,0.614770500000304,5
3,Left,LMC,Tone,Clear,70,3,1,0.818814700000075,3
3,Left,LMC,Tone,Clear,71,5,1,0.701890399999684,5
3,Left,LMC,Tone,Clear,72,3,0,0.568659099999422,1
3,Left,LMC,Tone,Clear,73,3,0,0.594215499999336,2
3,Left,LMC,Tone,Clear,74,5,1,0.598704699999871,4
3,Left,LMC,Tone,Clear,75,4,1,0.595417800001087,1
3,Left,LMC,Tone,Clear,76,1,0,0.655191399999239,3
3,Left,LMC,Tone,Clear,77,4,1,0.624793700000737,3
3,Left,LMC,Tone,Clear,78,2,0,0.657809599999382,3
3,Left,LMC,Cons,Clear,1,4,1,1.22354780000023,3
3,Left,LMC,Cons,Clear,2,4,1,0.723982800000158,2
3,Left,LMC,Cons,Clear,3,4,1,0.583373699999356,2
3,Left,LMC,Cons,Clear,4,1,0,0.549399100000301,3
3,Left,LMC,Cons,Clear,5,4,1,0.623349999999846,4
3,Left,LMC,Cons,Clear,6,5,1,0.587488099999973,1
3,Left,LMC,Cons,Clear,7,5,1,0.626651700000366,3
3,Left,LMC,Cons,Clear,8,1,0,0.49863809999988,5
3,Left,LMC,Cons,Clear,9,4,1,0.543003000000681,5
3,Left,LMC,Cons,Clear,10,5,1,0.633943499999077,5
3,Left,LMC,Cons,Clear,11,3,1,0.588311600000452,5
3,Left,LMC,Cons,Clear,12,1,0,0.505828999999721,3
3,Left,LMC,Cons,Clear,13,3,1,0.542305900000429,5
3,Left,LMC,Cons,Clear,14,2,1,0.828040899999905,1
3,Left,LMC,Cons,Clear,15,2,0,0.556589600000734,4
3,Left,LMC,Cons,Clear,16,4,1,0.526991599999747,4
3,Left,LMC,Cons,Clear,17,2,0,0.814799699999639,3
3,Left,LMC,Cons,Clear,18,2,1,0.668295999999827,2
3,Left,LMC,Cons,Clear,19,2,1,0.745121799998742,2
3,Left,LMC,Cons,Clear,20,4,1,0.600998700001583,1
3,Left,LMC,Cons,Clear,21,5,1,0.715124000000287,2
3,Left,LMC,Cons,Clear,22,3,1,0.64354110000022,1
3,Left,LMC,Cons,Clear,23,3,1,0.595742499999687,3
3,Left,LMC,Cons,Clear,24,5,1,0.620458299999882,3
3,Left,LMC,Cons,Clear,25,1,0,0.522582600000533,4
3,Left,LMC,Cons,Clear,26,1,1,0.550778999999238,1
3,Left,LMC,Cons,Clear,27,3,1,0.657787800000733,2
3,Left,LMC,Cons,Clear,28,2,1,0.625968299998931,5
3,Left,LMC,Cons,Clear,29,5,1,0.619138000000021,4
3,Left,LMC,Cons,Clear,30,2,0,0.534781100001055,4
3,Left,LMC,Cons,Clear,31,3,1,0.688236399999369,3
3,Left,LMC,Cons,Clear,32,3,1,0.712264799998593,2
3,Left,LMC,Cons,Clear,33,4,1,0.622199200000978,3
3,Left,LMC,Cons,Clear,34,3,1,0.617099900000539,4
3,Left,LMC,Cons,Clear,35,2,1,0.689108999999007,3
3,Left,LMC,Cons,Clear,36,3,1,0.719183900000644,4
3,Left,LMC,Cons,Clear,37,3,1,0.539351999999781,3
3,Left,LMC,Cons,Clear,38,1,0,0.576920499999687,2
3,Left,LMC,Cons,Clear,39,3,1,0.604654400000072,1
3,Left,LMC,Cons,Clear,40,1,0,0.548087999999552,4
3,Left,LMC,Cons,Clear,41,3,1,0.67287000000033,1
3,Left,LMC,Cons,Clear,42,3,1,0.58824949999871,3
3,Left,LMC,Cons,Clear,43,4,1,0.72364430000016,1
3,Left,LMC,Cons,Clear,44,3,1,0.610447099999874,3
3,Left,LMC,Cons,Clear,45,3,1,0.544537099998706,1
3,Left,LMC,Cons,Clear,46,4,1,0.575001299999713,4
3,Left,LMC,Cons,Clear,47,5,1,0.641819700000269,5
3,Left,LMC,Cons,Clear,48,4,1,0.705797599999642,3
3,Left,LMC,Cons,Clear,49,2,1,0.615769599999112,4
3,Left,LMC,Cons,Clear,50,4,1,0.556906499999968,2
3,Left,LMC,Cons,Clear,51,4,1,0.587171900000612,4
3,Left,LMC,Cons,Clear,52,2,1,0.65307170000051,3
3,Left,LMC,Cons,Clear,53,4,1,0.516826799999762,3
3,Left,LMC,Cons,Clear,54,2,0,0.587558199998966,2
3,Left,LMC,Cons,Clear,55,3,1,0.49390140000105,5
3,Left,LMC,Cons,Clear,56,5,1,0.5273801000003,3
3,Left,LMC,Cons,Clear,57,1,0,0.701302599998598,1
3,Left,LMC,Cons,Clear,58,2,0,0.663532399999895,1
3,Left,LMC,Cons,Clear,59,1,0,0.617820999999822,3
3,Left,LMC,Cons,Clear,60,5,1,0.559961799999655,4
3,Left,LMC,Cons,Clear,61,3,1,1.06206589999965,5
3,Left,LMC,Cons,Clear,62,1,0,0.621188099999927,5
3,Left,LMC,Cons,Clear,63,2,0,0.880856100000528,2
3,Left,LMC,Cons,Clear,64,2,0,0.836758600000394,4
3,Left,LMC,Cons,Clear,65,2,0,0.74891530000059,3
3,Left,LMC,Cons,Clear,66,3,1,0.52636800000073,2
3,Left,LMC,Cons,Clear,67,4,1,0.556652900000699,5
3,Left,LMC,Cons,Clear,68,5,1,0.585302599998613,3
3,Left,LMC,Cons,Clear,69,3,1,0.692175199999838,3
3,Left,LMC,Cons,Clear,70,3,1,0.650822499999776,2
3,Left,LMC,Cons,Clear,71,1,0,0.63615209999989,3
3,Left,LMC,Cons,Clear,72,5,1,0.666773099999773,2
3,Left,LMC,Cons,Clear,73,2,1,1.06200770000032,5
3,Left,LMC,Cons,Clear,74,5,1,0.600860599999578,1
3,Left,LMC,Cons,Clear,75,4,1,0.59406300000046,2
3,Left,LMC,Cons,Clear,76,3,1,0.546143899999151,4
3,Left,LMC,Cons,Clear,77,3,1,0.508817299998555,4
3,Left,LMC,Cons,Clear,78,1,0,0.502749299999778,2
3,Left,LMC,Tone,Noise,1,4,0,1.1088219000012,2
3,Left,LMC,Tone,Noise,2,1,0,0.691081299999496,3
3,Left,LMC,Tone,Noise,3,3,1,0.843568499998582,5
3,Left,LMC,Tone,Noise,4,4,1,0.686945800000103,4
3,Left,LMC,Tone,Noise,5,5,1,0.596978800000215,5
3,Left,LMC,Tone,Noise,6,2,0,0.76131979999991,5
3,Left,LMC,Tone,Noise,7,3,0,1.14998569999989,1
3,Left,LMC,Tone,Noise,8,5,1,0.699109900000622,4
3,Left,LMC,Tone,Noise,9,3,1,0.676793100001305,3
3,Left,LMC,Tone,Noise,10,3,0,0.923305000000255,4
3,Left,LMC,Tone,Noise,11,4,1,0.741339100000914,1
3,Left,LMC,Tone,Noise,12,2,0,0.699917699999787,3
3,Left,LMC,Tone,Noise,13,3,0,0.892339800000627,4
3,Left,LMC,Tone,Noise,14,2,0,0.691700999999739,4
3,Left,LMC,Tone,Noise,15,3,1,0.799663499999951,2
3,Left,LMC,Tone,Noise,16,3,1,0.831552100000408,2
3,Left,LMC,Tone,Noise,17,3,0,0.981536299999789,3
3,Left,LMC,Tone,Noise,18,4,1,0.801963300000352,3
3,Left,LMC,Tone,Noise,19,2,0,0.712641399999484,4
3,Left,LMC,Tone,Noise,20,5,1,0.601724800000738,3
3,Left,LMC,Tone,Noise,21,4,1,0.87363760000153,5
3,Left,LMC,Tone,Noise,22,2,0,0.646497200001249,1
3,Left,LMC,Tone,Noise,23,4,1,0.7146460999993,3
3,Left,LMC,Tone,Noise,24,4,1,0.639852599999358,4
3,Left,LMC,Tone,Noise,25,3,0,0.688892300000589,3
3,Left,LMC,Tone,Noise,26,5,1,0.913748699998905,2
3,Left,LMC,Tone,Noise,27,3,0,0.782565299999987,1
3,Left,LMC,Tone,Noise,28,2,0,0.909368399999948,3
3,Left,LMC,Tone,Noise,29,1,0,0.888823700001012,4
3,Left,LMC,Tone,Noise,30,1,0,0.662387899999885,1
3,Left,LMC,Tone,Noise,31,2,0,0.620994500000961,2
3,Left,LMC,Tone,Noise,32,1,0,0.645529400000669,2
3,Left,LMC,Tone,Noise,33,1,0,0.701415999999881,3
3,Left,LMC,Tone,Noise,34,1,0,0.63744460000089,5
3,Left,LMC,Tone,Noise,35,5,1,0.78142790000129,3
3,Left,LMC,Tone,Noise,36,4,1,0.636447400000179,2
3,Left,LMC,Tone,Noise,37,2,0,0.699357299999974,2
3,Left,LMC,Tone,Noise,38,3,1,1.18571779999911,5
3,Left,LMC,Tone,Noise,39,5,1,0.776579700001093,1
3,Left,LMC,Tone,Noise,40,4,1,0.75068900000042,2
3,Left,LMC,Tone,Noise,41,4,1,0.634253599999283,4
3,Left,LMC,Tone,Noise,42,1,0,0.574101000000155,1
3,Left,LMC,Tone,Noise,43,3,1,0.841779700000188,2
3,Left,LMC,Tone,Noise,44,5,1,0.760012499998993,4
3,Left,LMC,Tone,Noise,45,5,1,0.698542300000554,3
3,Left,LMC,Tone,Noise,46,3,0,0.688210100001015,2
3,Left,LMC,Tone,Noise,47,3,1,0.836346999998568,5
3,Left,LMC,Tone,Noise,48,4,1,0.685095900000306,3
3,Left,LMC,Tone,Noise,49,4,0,0.768520400000853,3
3,Left,LMC,Tone,Noise,50,2,0,0.702149700000518,3
3,Left,LMC,Tone,Noise,51,5,1,0.624764599999253,2
3,Left,LMC,Tone,Noise,52,1,0,0.665743499999735,4
3,Left,LMC,Tone,Noise,53,4,0,0.990867399999843,1
3,Left,LMC,Tone,Noise,54,2,0,0.685468300000139,4
3,Left,LMC,Tone,Noise,55,1,0,0.579888700000083,3
3,Left,LMC,Tone,Noise,56,3,0,0.656392400000186,1
3,Left,LMC,Tone,Noise,57,1,0,0.643907900001068,5
3,Left,LMC,Tone,Noise,58,5,1,0.676287299998876,3
3,Left,LMC,Tone,Noise,59,3,0,0.833186699999715,5
3,Left,LMC,Tone,Noise,60,3,0,0.619160099999135,3
3,Left,LMC,Tone,Noise,61,1,0,0.727029699999548,3
3,Left,LMC,Tone,Noise,62,2,0,0.654110800000126,3
3,Left,LMC,Tone,Noise,63,2,0,0.68221579999954,4
3,Left,LMC,Tone,Noise,64,4,1,0.765276199999789,4
3,Left,LMC,Tone,Noise,65,3,1,0.852196700001514,3
3,Left,LMC,Tone,Noise,66,4,1,0.589116300001479,2
3,Left,LMC,Tone,Noise,67,3,0,0.729507899999589,4
3,Left,LMC,Tone,Noise,68,2,0,0.831636400000207,5
3,Left,LMC,Tone,Noise,69,3,1,0.634296599999288,1
3,Left,LMC,Tone,Noise,70,2,0,0.701181600001291,1
3,Left,LMC,Tone,Noise,71,3,1,0.994218699999692,4
3,Left,LMC,Tone,Noise,72,4,1,0.903899400000228,5
3,Left,LMC,Tone,Noise,73,3,0,0.85538009999982,3
3,Left,LMC,Tone,Noise,74,1,0,0.713696099999652,2
3,Left,LMC,Tone,Noise,75,5,1,0.782537000000957,5
3,Left,LMC,Tone,Noise,76,5,1,0.914327600001343,1
3,Left,LMC,Tone,Noise,77,2,0,0.695593200000076,2
3,Left,LMC,Tone,Noise,78,2,0,0.682058100001086,2
3,Left,LMC,Cons,Noise,1,2,0,0.851697000000058,2
3,Left,LMC,Cons,Noise,2,3,0,0.919722599999659,2
3,Left,LMC,Cons,Noise,3,5,0,0.85761150000144,3
3,Left,LMC,Cons,Noise,4,3,0,0.879425099999935,3
3,Left,LMC,Cons,Noise,5,5,0,1.1254495000012,4
3,Left,LMC,Cons,Noise,6,4,0,0.734262500000114,5
3,Left,LMC,Cons,Noise,7,3,0,0.641583399999945,1
3,Left,LMC,Cons,Noise,8,2,0,0.759815899999012,4
3,Left,LMC,Cons,Noise,9,1,0,0.708786799999871,4
3,Left,LMC,Cons,Noise,10,3,1,1.02247929999976,3
3,Left,LMC,Cons,Noise,11,1,0,0.827272200000152,2
3,Left,LMC,Cons,Noise,12,4,1,0.787704200000007,4
3,Left,LMC,Cons,Noise,13,3,0,0.879431900000782,1
3,Left,LMC,Cons,Noise,14,2,0,0.65826609999931,3
3,Left,LMC,Cons,Noise,15,5,0,1.05271859999993,2
3,Left,LMC,Cons,Noise,16,4,0,0.726130200000625,3
3,Left,LMC,Cons,Noise,17,4,0,0.605471599999873,2
3,Left,LMC,Cons,Noise,18,5,0,0.654130200000509,3
3,Left,LMC,Cons,Noise,19,2,0,0.799315800000841,2
3,Left,LMC,Cons,Noise,20,3,0,0.812050599999566,4
3,Left,LMC,Cons,Noise,21,2,0,0.757179300000644,1
3,Left,LMC,Cons,Noise,22,3,0,1.07874799999991,3
3,Left,LMC,Cons,Noise,23,1,0,0.657989899998938,3
3,Left,LMC,Cons,Noise,24,3,0,0.70833329999914,5
3,Left,LMC,Cons,Noise,25,2,0,0.608157599999686,5
3,Left,LMC,Cons,Noise,26,1,0,0.568585500001063,1
3,Left,LMC,Cons,Noise,27,4,0,0.687098700000206,4
3,Left,LMC,Cons,Noise,28,1,0,0.626761299999998,3
3,Left,LMC,Cons,Noise,29,4,0,0.653611300000193,1
3,Left,LMC,Cons,Noise,30,5,0,1.04709270000058,1
3,Left,LMC,Cons,Noise,31,4,0,0.975491999999576,2
3,Left,LMC,Cons,Noise,32,2,0,0.769254400000136,3
3,Left,LMC,Cons,Noise,33,5,1,0.892228200000318,5
3,Left,LMC,Cons,Noise,34,3,0,0.920946999998705,2
3,Left,LMC,Cons,Noise,35,2,1,0.67662989999917,4
3,Left,LMC,Cons,Noise,36,3,0,0.746567799998957,4
3,Left,LMC,Cons,Noise,37,4,0,0.974196600000141,3
3,Left,LMC,Cons,Noise,38,1,0,0.721311999999671,5
3,Left,LMC,Cons,Noise,39,3,1,0.776333499999964,5
3,Left,LMC,Cons,Noise,40,3,0,1.06707909999932,5
3,Left,LMC,Cons,Noise,41,2,0,0.867036699999517,4
3,Left,LMC,Cons,Noise,42,2,0,0.921278699999675,3
3,Left,LMC,Cons,Noise,43,3,0,0.828901400000177,5
3,Left,LMC,Cons,Noise,44,2,0,0.867477799998596,4
3,Left,LMC,Cons,Noise,45,3,0,1.00621390000015,3
3,Left,LMC,Cons,Noise,46,5,1,1.18982909999977,2
3,Left,LMC,Cons,Noise,47,2,0,0.758579800000007,1
3,Left,LMC,Cons,Noise,48,2,0,0.667886400000498,2
3,Left,LMC,Cons,Noise,49,3,0,0.638803699999698,3
3,Left,LMC,Cons,Noise,50,1,0,0.588508100001491,5
3,Left,LMC,Cons,Noise,51,5,1,1.04314909999994,5
3,Left,LMC,Cons,Noise,52,4,0,0.795155299998441,2
3,Left,LMC,Cons,Noise,53,3,1,1.05888099999902,1
3,Left,LMC,Cons,Noise,54,1,0,0.656365299999379,4
3,Left,LMC,Cons,Noise,55,2,0,0.61306549999972,3
3,Left,LMC,Cons,Noise,56,1,0,0.903744799999913,3
3,Left,LMC,Cons,Noise,57,4,1,0.892503700000816,4
3,Left,LMC,Cons,Noise,58,3,1,0.704797600001257,1
3,Left,LMC,Cons,Noise,59,5,1,0.696680100001686,1
3,Left,LMC,Cons,Noise,60,4,0,1.36855910000122,5
3,Left,LMC,Cons,Noise,61,3,1,1.0968230999988,3
3,Left,LMC,Cons,Noise,62,5,1,0.765672000001359,3
3,Left,LMC,Cons,Noise,63,1,0,0.652948700000707,3
3,Left,LMC,Cons,Noise,64,4,1,1.04857480000101,3
3,Left,LMC,Cons,Noise,65,2,0,0.852511999999479,5
3,Left,LMC,Cons,Noise,66,3,0,0.877343899999687,2
3,Left,LMC,Cons,Noise,67,4,1,0.73841800000082,4
3,Left,LMC,Cons,Noise,68,3,1,0.636453199998869,2
3,Left,LMC,Cons,Noise,69,1,0,0.769112699999823,2
3,Left,LMC,Cons,Noise,70,3,1,1.28334910000012,4
3,Left,LMC,Cons,Noise,71,4,1,1.06648649999988,1
3,Left,LMC,Cons,Noise,72,5,1,0.874932900000204,3
3,Left,LMC,Cons,Noise,73,3,1,1.02149959999952,4
3,Left,LMC,Cons,Noise,74,5,1,0.679577300001256,4
3,Left,LMC,Cons,Noise,75,4,1,0.850276299999678,2
3,Left,LMC,Cons,Noise,76,2,0,0.933456599999772,2
3,Left,LMC,Cons,Noise,77,1,0,0.654577400000562,1
3,Left,LMC,Cons,Noise,78,4,0,0.817448699999659,3
3,Left,Sham,Tone,Clear,1,4,1,0.845078099999228,2
3,Left,Sham,Tone,Clear,2,4,1,0.608789299993077,4
3,Left,Sham,Tone,Clear,3,4,1,0.762074800004484,4
3,Left,Sham,Tone,Clear,4,2,0,0.644135199996526,2
3,Left,Sham,Tone,Clear,5,3,1,0.714696800001548,1
3,Left,Sham,Tone,Clear,6,5,1,0.663677399992594,1
3,Left,Sham,Tone,Clear,7,4,1,0.512970700001461,5
3,Left,Sham,Tone,Clear,8,2,0,0.594326799997361,5
3,Left,Sham,Tone,Clear,9,3,1,0.569249899999704,3
3,Left,Sham,Tone,Clear,10,3,1,0.516423900000518,1
3,Left,Sham,Tone,Clear,11,4,1,0.572652399991057,3
3,Left,Sham,Tone,Clear,12,2,0,0.668706799988286,2
3,Left,Sham,Tone,Clear,13,2,0,0.682107500004349,3
3,Left,Sham,Tone,Clear,14,2,0,0.686803300006432,3
3,Left,Sham,Tone,Clear,15,1,0,0.801163599986467,1
3,Left,Sham,Tone,Clear,16,5,1,0.663459499992314,5
3,Left,Sham,Tone,Clear,17,2,0,0.580017200001748,1
3,Left,Sham,Tone,Clear,18,5,1,0.789818600009312,4
3,Left,Sham,Tone,Clear,19,3,0,0.744465800002217,5
3,Left,Sham,Tone,Clear,20,3,1,0.75751890000538,4
3,Left,Sham,Tone,Clear,21,5,1,0.571929199999431,2
3,Left,Sham,Tone,Clear,22,3,1,0.955138399993302,3
3,Left,Sham,Tone,Clear,23,3,1,0.712164500000654,2
3,Left,Sham,Tone,Clear,24,3,1,0.803500499998336,4
3,Left,Sham,Tone,Clear,25,1,0,0.622799400007352,2
3,Left,Sham,Tone,Clear,26,1,0,0.694960799999535,3
3,Left,Sham,Tone,Clear,27,4,1,0.537717800005339,1
3,Left,Sham,Tone,Clear,28,1,0,0.62490669998806,3
3,Left,Sham,Tone,Clear,29,2,0,0.669271599996137,4
3,Left,Sham,Tone,Clear,30,1,0,0.686564200004796,4
3,Left,Sham,Tone,Clear,31,4,1,0.675827800005209,2
3,Left,Sham,Tone,Clear,32,3,1,0.836133300006622,3
3,Left,Sham,Tone,Clear,33,3,1,0.707778600000893,5
3,Left,Sham,Tone,Clear,34,1,0,0.589946200008853,5
3,Left,Sham,Tone,Clear,35,2,0,0.644430600004853,4
3,Left,Sham,Tone,Clear,36,5,1,0.536277499995776,3
3,Left,Sham,Tone,Clear,37,3,1,0.649920500000007,2
3,Left,Sham,Tone,Clear,38,5,1,0.491487200008123,3
3,Left,Sham,Tone,Clear,39,4,1,0.56715339999937,3
3,Left,Sham,Tone,Clear,40,3,1,0.769303299995954,1
3,Left,Sham,Tone,Clear,41,5,1,0.53647120000096,2
3,Left,Sham,Tone,Clear,42,5,1,0.560341499993228,4
3,Left,Sham,Tone,Clear,43,4,1,0.544530099999974,1
3,Left,Sham,Tone,Clear,44,2,0,0.607756699988386,3
3,Left,Sham,Tone,Clear,45,4,1,0.620987100002822,3
3,Left,Sham,Tone,Clear,46,4,1,0.558707000003778,2
3,Left,Sham,Tone,Clear,47,4,1,0.546579400004703,4
3,Left,Sham,Tone,Clear,48,3,1,0.55542129999958,3
3,Left,Sham,Tone,Clear,49,2,0,0.759159099994577,3
3,Left,Sham,Tone,Clear,50,2,0,0.69708470000478,1
3,Left,Sham,Tone,Clear,51,3,1,0.920125000004191,4
3,Left,Sham,Tone,Clear,52,1,0,0.974903399997856,2
3,Left,Sham,Tone,Clear,53,5,1,0.513023299994529,5
3,Left,Sham,Tone,Clear,54,2,0,0.588961199988262,2
3,Left,Sham,Tone,Clear,55,2,0,0.671322900001542,4
3,Left,Sham,Tone,Clear,56,1,0,0.641420100000687,3
3,Left,Sham,Tone,Clear,57,3,1,0.830639599997085,3
3,Left,Sham,Tone,Clear,58,3,1,0.722837200009963,1
3,Left,Sham,Tone,Clear,59,2,0,0.524798200000077,2
3,Left,Sham,Tone,Clear,60,5,1,0.595856100000674,1
3,Left,Sham,Tone,Clear,61,4,1,0.615483999994467,4
3,Left,Sham,Tone,Clear,62,3,0,0.77631209998799,4
3,Left,Sham,Tone,Clear,63,5,1,0.63033839999116,3
3,Left,Sham,Tone,Clear,64,5,1,0.491672100004507,3
3,Left,Sham,Tone,Clear,65,3,1,0.425870500010205,5
3,Left,Sham,Tone,Clear,66,3,1,0.61336129999836,2
3,Left,Sham,Tone,Clear,67,2,0,0.71832459999132,4
3,Left,Sham,Tone,Clear,68,1,0,0.641126899994561,1
3,Left,Sham,Tone,Clear,69,4,1,0.557766999991145,5
3,Left,Sham,Tone,Clear,70,1,0,0.637940999993589,5
3,Left,Sham,Tone,Clear,71,2,0,0.68452690000413,5
3,Left,Sham,Tone,Clear,72,3,1,0.553168400001596,3
3,Left,Sham,Tone,Clear,73,3,1,0.671174000002793,5
3,Left,Sham,Tone,Clear,74,4,1,0.63028490000579,2
3,Left,Sham,Tone,Clear,75,4,1,0.509219500003383,3
3,Left,Sham,Tone,Clear,76,1,0,0.640241999994032,3
3,Left,Sham,Tone,Clear,77,3,1,0.704498600010993,2
3,Left,Sham,Tone,Clear,78,1,0,0.634491999997408,4
3,Left,Sham,Cons,Clear,1,2,0,0.597330700009479,1
3,Left,Sham,Cons,Clear,2,2,0,0.707965300010983,3
3,Left,Sham,Cons,Clear,3,3,0,0.626775099997758,4
3,Left,Sham,Cons,Clear,4,3,1,0.578291300000274,3
3,Left,Sham,Cons,Clear,5,1,0,0.985092699993402,3
3,Left,Sham,Cons,Clear,6,3,0,0.691857300000265,3
3,Left,Sham,Cons,Clear,7,2,1,0.576199700008146,3
3,Left,Sham,Cons,Clear,8,1,1,0.666628200007835,2
3,Left,Sham,Cons,Clear,9,5,1,0.628792400006205,2
3,Left,Sham,Cons,Clear,10,4,1,0.630625399993733,5
3,Left,Sham,Cons,Clear,11,5,1,0.594637599991984,5
3,Left,Sham,Cons,Clear,12,3,1,0.5454555000033,5
3,Left,Sham,Cons,Clear,13,1,0,0.667025400005514,4
3,Left,Sham,Cons,Clear,14,4,1,0.585188500001095,4
3,Left,Sham,Cons,Clear,15,4,1,0.653299500001594,1
3,Left,Sham,Cons,Clear,16,3,1,0.648304300004384,5
3,Left,Sham,Cons,Clear,17,1,0,0.611649700003909,1
3,Left,Sham,Cons,Clear,18,2,0,0.692313799998374,2
3,Left,Sham,Cons,Clear,19,3,1,0.584456800002954,2
3,Left,Sham,Cons,Clear,20,2,0,0.781552200001897,4
3,Left,Sham,Cons,Clear,21,2,1,0.525796499990975,5
3,Left,Sham,Cons,Clear,22,4,1,0.704144699993776,2
3,Left,Sham,Cons,Clear,23,4,1,0.632529700000305,4
3,Left,Sham,Cons,Clear,24,2,0,0.864615900005447,4
3,Left,Sham,Cons,Clear,25,4,1,0.603450200011139,3
3,Left,Sham,Cons,Clear,26,2,1,0.645934399988619,2
3,Left,Sham,Cons,Clear,27,5,1,0.611262499995064,1
3,Left,Sham,Cons,Clear,28,4,1,0.56483419999131,2
3,Left,Sham,Cons,Clear,29,1,0,0.55903620000754,5
3,Left,Sham,Cons,Clear,30,3,1,0.582056600003853,1
3,Left,Sham,Cons,Clear,31,4,1,0.873480700000073,3
3,Left,Sham,Cons,Clear,32,3,1,0.623699500007206,1
3,Left,Sham,Cons,Clear,33,3,1,0.642253000012715,2
3,Left,Sham,Cons,Clear,34,5,1,0.721380100003444,4
3,Left,Sham,Cons,Clear,35,1,0,0.575903499993728,3
3,Left,Sham,Cons,Clear,36,5,1,0.550078900007065,3
3,Left,Sham,Cons,Clear,37,3,1,0.567420100007439,3
3,Left,Sham,Cons,Clear,38,3,1,0.581923699995968,4
3,Left,Sham,Cons,Clear,39,5,1,0.604701700009173,3
3,Left,Sham,Cons,Clear,40,2,1,0.62565239999094,2
3,Left,Sham,Cons,Clear,41,3,1,0.634287300010328,4
3,Left,Sham,Cons,Clear,42,3,1,0.592256299991277,1
3,Left,Sham,Cons,Clear,43,5,1,0.852463999995962,5
3,Left,Sham,Cons,Clear,44,3,1,0.742790699994657,2
3,Left,Sham,Cons,Clear,45,1,0,0.540451099994243,1
3,Left,Sham,Cons,Clear,46,3,1,0.855112799996277,1
3,Left,Sham,Cons,Clear,47,4,1,0.573634800006403,2
3,Left,Sham,Cons,Clear,48,4,1,0.548838000002434,5
3,Left,Sham,Cons,Clear,49,2,0,0.6317784999992,4
3,Left,Sham,Cons,Clear,50,4,1,0.490738899999997,1
3,Left,Sham,Cons,Clear,51,3,1,0.593783600008464,3
3,Left,Sham,Cons,Clear,52,1,0,0.658166900000651,2
3,Left,Sham,Cons,Clear,53,2,1,0.885809800005518,3
3,Left,Sham,Cons,Clear,54,5,1,0.650589900003979,1
3,Left,Sham,Cons,Clear,55,1,0,0.621913599999971,4
3,Left,Sham,Cons,Clear,56,2,0,0.723271599999862,3
3,Left,Sham,Cons,Clear,57,5,1,0.601794500005781,4
3,Left,Sham,Cons,Clear,58,3,1,0.584941199995228,4
3,Left,Sham,Cons,Clear,59,2,0,0.632266300002811,2
3,Left,Sham,Cons,Clear,60,3,1,0.640301199993701,3
3,Left,Sham,Cons,Clear,61,4,1,0.51327609999862,2
3,Left,Sham,Cons,Clear,62,2,0,0.676255300000776,4
3,Left,Sham,Cons,Clear,63,4,1,0.439529199997196,4
3,Left,Sham,Cons,Clear,64,2,0,0.53861939998751,5
3,Left,Sham,Cons,Clear,65,3,1,0.528141599992523,5
3,Left,Sham,Cons,Clear,66,1,0,0.627851700002793,5
3,Left,Sham,Cons,Clear,67,5,1,0.568642600002931,2
3,Left,Sham,Cons,Clear,68,3,1,0.592821000012918,2
3,Left,Sham,Cons,Clear,69,4,1,0.589715200010687,3
3,Left,Sham,Cons,Clear,70,5,1,0.672899500001222,3
3,Left,Sham,Cons,Clear,71,2,1,0.900405599997612,1
3,Left,Sham,Cons,Clear,72,1,0,0.597120899998117,3
3,Left,Sham,Cons,Clear,73,3,1,0.592506800006959,3
3,Left,Sham,Cons,Clear,74,3,1,0.60979679999582,5
3,Left,Sham,Cons,Clear,75,4,1,0.641448299997137,3
3,Left,Sham,Cons,Clear,76,1,0,0.903609200002393,3
3,Left,Sham,Cons,Clear,77,5,0,0.830343800000264,3
3,Left,Sham,Cons,Clear,78,4,1,0.658345300005749,4
3,Left,Sham,Tone,Noise,1,1,0,0.707147299995995,1
3,Left,Sham,Tone,Noise,2,2,0,0.776713500003098,4
3,Left,Sham,Tone,Noise,3,1,0,0.538000999993528,3
3,Left,Sham,Tone,Noise,4,4,1,0.612455999988015,2
3,Left,Sham,Tone,Noise,5,5,1,0.58688690001145,3
3,Left,Sham,Tone,Noise,6,1,0,0.661108200001763,5
3,Left,Sham,Tone,Noise,7,3,1,0.608245499999612,2
3,Left,Sham,Tone,Noise,8,2,0,0.54395530000329,2
3,Left,Sham,Tone,Noise,9,2,0,0.663135800001328,3
3,Left,Sham,Tone,Noise,10,2,0,0.676157399997464,4
3,Left,Sham,Tone,Noise,11,3,0,0.720022099994821,4
3,Left,Sham,Tone,Noise,12,3,1,0.578816699999152,1
3,Left,Sham,Tone,Noise,13,5,1,0.451563800001168,1
3,Left,Sham,Tone,Noise,14,3,0,0.765004600005341,2
3,Left,Sham,Tone,Noise,15,3,0,0.693625999992946,5
3,Left,Sham,Tone,Noise,16,5,0,0.594402200003969,4
3,Left,Sham,Tone,Noise,17,3,1,0.625874299992574,4
3,Left,Sham,Tone,Noise,18,1,0,0.648238900001161,2
3,Left,Sham,Tone,Noise,19,3,0,0.730913299994427,5
3,Left,Sham,Tone,Noise,20,1,0,0.630319199990481,3
3,Left,Sham,Tone,Noise,21,2,0,0.793843399995239,5
3,Left,Sham,Tone,Noise,22,1,0,0.596052200009581,4
3,Left,Sham,Tone,Noise,23,3,1,0.810640199997579,3
3,Left,Sham,Tone,Noise,24,5,1,0.590615100009018,2
3,Left,Sham,Tone,Noise,25,4,1,0.661476100009168,3
3,Left,Sham,Tone,Noise,26,4,1,0.882163799993577,3
3,Left,Sham,Tone,Noise,27,2,0,0.694335400010459,1
3,Left,Sham,Tone,Noise,28,4,0,0.685649999999441,1
3,Left,Sham,Tone,Noise,29,4,1,0.610098599994672,5
3,Left,Sham,Tone,Noise,30,4,1,0.676715500012506,2
3,Left,Sham,Tone,Noise,31,5,1,0.715162199994666,5
3,Left,Sham,Tone,Noise,32,3,0,0.933713699996588,3
3,Left,Sham,Tone,Noise,33,5,1,0.665412899994408,3
3,Left,Sham,Tone,Noise,34,3,0,0.669867199991131,1
3,Left,Sham,Tone,Noise,35,4,1,0.750651599999401,4
3,Left,Sham,Tone,Noise,36,4,1,0.684050299998489,4
3,Left,Sham,Tone,Noise,37,3,0,0.690214400005061,3
3,Left,Sham,Tone,Noise,38,2,0,0.702564899998833,2
3,Left,Sham,Tone,Noise,39,2,0,0.624312900006771,3
3,Left,Sham,Tone,Noise,40,5,1,0.625778999994509,4
3,Left,Sham,Tone,Noise,41,5,1,0.603329100005794,3
3,Left,Sham,Tone,Noise,42,5,0,0.66449019999709,1
3,Left,Sham,Tone,Noise,43,1,0,0.600809600000503,2
3,Left,Sham,Tone,Noise,44,5,1,0.600201299996115,3
3,Left,Sham,Tone,Noise,45,3,0,0.665290200005984,1
3,Left,Sham,Tone,Noise,46,4,1,0.603703100001439,4
3,Left,Sham,Tone,Noise,47,4,1,0.815259099996183,5
3,Left,Sham,Tone,Noise,48,1,0,0.592880399999558,4
3,Left,Sham,Tone,Noise,49,3,0,0.66192119999323,3
3,Left,Sham,Tone,Noise,50,3,1,0.894505799995386,4
3,Left,Sham,Tone,Noise,51,4,1,0.776024199993117,2
3,Left,Sham,Tone,Noise,52,2,0,0.684221899995464,2
3,Left,Sham,Tone,Noise,53,1,0,0.663559699998586,5
3,Left,Sham,Tone,Noise,54,3,1,0.756428100008634,5
3,Left,Sham,Tone,Noise,55,4,1,0.693106599996099,4
3,Left,Sham,Tone,Noise,56,5,1,0.965358000001288,2
3,Left,Sham,Tone,Noise,57,2,0,0.672201899986248,1
3,Left,Sham,Tone,Noise,58,2,0,0.76596150000114,5
3,Left,Sham,Tone,Noise,59,3,1,0.786017999998876,4
3,Left,Sham,Tone,Noise,60,1,0,0.638549199997215,3
3,Left,Sham,Tone,Noise,61,4,1,0.641247999999905,2
3,Left,Sham,Tone,Noise,62,2,0,0.681468599999789,3
3,Left,Sham,Tone,Noise,63,3,0,0.70418349999818,2
3,Left,Sham,Tone,Noise,64,3,0,0.6317784999992,3
3,Left,Sham,Tone,Noise,65,3,0,0.676837399994838,3
3,Left,Sham,Tone,Noise,66,3,1,0.896309699994163,5
3,Left,Sham,Tone,Noise,67,2,0,0.667371700008516,3
3,Left,Sham,Tone,Noise,68,4,1,0.579663500000606,3
3,Left,Sham,Tone,Noise,69,2,0,0.725297600001795,4
3,Left,Sham,Tone,Noise,70,2,0,0.913010099990061,4
3,Left,Sham,Tone,Noise,71,1,0,0.606723599994439,3
3,Left,Sham,Tone,Noise,72,1,0,0.661077400000067,1
3,Left,Sham,Tone,Noise,73,4,1,0.668310099994414,1
3,Left,Sham,Tone,Noise,74,4,1,0.675214500006405,3
3,Left,Sham,Tone,Noise,75,5,1,0.70145500000217,5
3,Left,Sham,Tone,Noise,76,3,0,0.674879099999089,2
3,Left,Sham,Tone,Noise,77,3,0,0.722546399993007,1
3,Left,Sham,Tone,Noise,78,2,0,0.748539400010486,2
3,Left,Sham,Cons,Noise,1,5,1,1.01900489999389,2
3,Left,Sham,Cons,Noise,2,3,0,0.726943300003768,3
3,Left,Sham,Cons,Noise,3,3,0,0.668065500009106,2
3,Left,Sham,Cons,Noise,4,3,0,0.796365400005016,4
3,Left,Sham,Cons,Noise,5,5,0,0.958122500000172,4
3,Left,Sham,Cons,Noise,6,3,1,0.668203300010646,3
3,Left,Sham,Cons,Noise,7,2,0,0.607573799992679,3
3,Left,Sham,Cons,Noise,8,2,1,0.542639300008886,2
3,Left,Sham,Cons,Noise,9,1,0,0.574935200012987,2
3,Left,Sham,Cons,Noise,10,2,0,0.611583599995356,2
3,Left,Sham,Cons,Noise,11,4,1,0.654227799997898,1
3,Left,Sham,Cons,Noise,12,3,1,0.949660400001449,1
3,Left,Sham,Cons,Noise,13,4,1,0.676021200008108,4
3,Left,Sham,Cons,Noise,14,4,1,0.67178899999999,4
3,Left,Sham,Cons,Noise,15,4,1,0.667661200001021,3
3,Left,Sham,Cons,Noise,16,2,0,0.854075499999453,4
3,Left,Sham,Cons,Noise,17,4,1,0.618846800003666,2
3,Left,Sham,Cons,Noise,18,3,1,0.651957499998389,4
3,Left,Sham,Cons,Noise,19,2,0,0.90147359999537,3
3,Left,Sham,Cons,Noise,20,1,0,0.64204740000423,3
3,Left,Sham,Cons,Noise,21,2,0,0.638193200007663,4
3,Left,Sham,Cons,Noise,22,1,0,0.615956299996469,1
3,Left,Sham,Cons,Noise,23,3,1,0.533284500008449,5
3,Left,Sham,Cons,Noise,24,1,0,0.607870099993306,4
3,Left,Sham,Cons,Noise,25,5,1,0.573141900007613,5
3,Left,Sham,Cons,Noise,26,4,1,0.586139800012461,5
3,Left,Sham,Cons,Noise,27,3,1,0.732857800001511,1
3,Left,Sham,Cons,Noise,28,5,1,0.692488699991372,1
3,Left,Sham,Cons,Noise,29,4,1,0.622467200009851,2
3,Left,Sham,Cons,Noise,30,1,0,0.607692000005045,3
3,Left,Sham,Cons,Noise,31,4,1,0.625511599995662,3
3,Left,Sham,Cons,Noise,32,2,0,0.80742929999542,5
3,Left,Sham,Cons,Noise,33,5,1,0.646783699994558,3
3,Left,Sham,Cons,Noise,34,1,0,0.583481100009521,5
3,Left,Sham,Cons,Noise,35,3,1,0.835328100001789,2
3,Left,Sham,Cons,Noise,36,5,1,0.586488700006157,3
3,Left,Sham,Cons,Noise,37,3,1,0.594639100003405,3
3,Left,Sham,Cons,Noise,38,2,1,0.583600099998876,1
3,Left,Sham,Cons,Noise,39,3,1,0.630114700004924,5
3,Left,Sham,Cons,Noise,40,2,1,0.60023419999925,3
3,Left,Sham,Cons,Noise,41,1,0,0.582744200000889,3
3,Left,Sham,Cons,Noise,42,4,1,0.62371479999274,2
3,Left,Sham,Cons,Noise,43,5,1,0.702366199999233,3
3,Left,Sham,Cons,Noise,44,4,1,0.628045099991141,1
3,Left,Sham,Cons,Noise,45,4,1,0.617625200000475,4
3,Left,Sham,Cons,Noise,46,3,1,0.667889899996226,3
3,Left,Sham,Cons,Noise,47,2,0,0.800218000003952,1
3,Left,Sham,Cons,Noise,48,2,0,0.640985000005458,3
3,Left,Sham,Cons,Noise,49,2,0,0.709655700004078,4
3,Left,Sham,Cons,Noise,50,4,1,0.79327719999128,3
3,Left,Sham,Cons,Noise,51,3,1,0.758794299996225,4
3,Left,Sham,Cons,Noise,52,4,1,0.74336900000344,3
3,Left,Sham,Cons,Noise,53,3,1,0.602181299997028,2
3,Left,Sham,Cons,Noise,54,3,1,0.60326509999868,5
3,Left,Sham,Cons,Noise,55,3,1,0.488270200003171,2
3,Left,Sham,Cons,Noise,56,5,1,0.637965299989446,2
3,Left,Sham,Cons,Noise,57,1,0,0.483297200000379,2
3,Left,Sham,Cons,Noise,58,1,0,0.553381999998237,3
3,Left,Sham,Cons,Noise,59,5,1,0.556757600003039,5
3,Left,Sham,Cons,Noise,60,4,1,0.558648499994888,2
3,Left,Sham,Cons,Noise,61,5,1,0.556594499998027,1
3,Left,Sham,Cons,Noise,62,3,1,0.537092400001711,3
3,Left,Sham,Cons,Noise,63,2,0,0.575495199998841,5
3,Left,Sham,Cons,Noise,64,4,1,0.707717199999024,5
3,Left,Sham,Cons,Noise,65,3,1,0.994757299995399,4
3,Left,Sham,Cons,Noise,66,4,1,0.653320199999143,4
3,Left,Sham,Cons,Noise,67,3,1,0.591943599996739,1
3,Left,Sham,Cons,Noise,68,2,0,0.664396599997417,2
3,Left,Sham,Cons,Noise,69,3,1,0.61278750000929,1
3,Left,Sham,Cons,Noise,70,1,0,0.57526090000465,1
3,Left,Sham,Cons,Noise,71,2,0,0.715966400006437,4
3,Left,Sham,Cons,Noise,72,1,0,0.575892900000326,5
3,Left,Sham,Cons,Noise,73,5,1,0.873471700004302,4
3,Left,Sham,Cons,Noise,74,3,1,0.609031900006812,3
3,Left,Sham,Cons,Noise,75,5,1,0.648662599996896,3
3,Left,Sham,Cons,Noise,76,2,0,0.743426499990164,2
3,Left,Sham,Cons,Noise,77,3,1,0.679757999998401,5
3,Left,Sham,Cons,Noise,78,1,0,0.535812000001897,4
5,Right,LMC,Tone,Clear,1,1,0,1.2788249999976,1
5,Right,LMC,Tone,Clear,2,3,1,0.976280099999713,3
5,Right,LMC,Tone,Clear,3,3,1,0.771361400002206,3
5,Right,LMC,Tone,Clear,4,2,0,0.653484400001616,1
5,Right,LMC,Tone,Clear,5,3,1,0.918548099998588,4
5,Right,LMC,Tone,Clear,6,2,0,1.08926480000082,2
5,Right,LMC,Tone,Clear,7,4,1,0.926143500000762,2
5,Right,LMC,Tone,Clear,8,2,0,1.18040680000195,3
5,Right,LMC,Tone,Clear,9,5,1,0.735568399999465,5
5,Right,LMC,Tone,Clear,10,5,1,0.681611299998622,4
5,Right,LMC,Tone,Clear,11,4,1,0.710562700001901,5
5,Right,LMC,Tone,Clear,12,4,1,1.30139280000003,1
5,Right,LMC,Tone,Clear,13,3,1,1.74282200000016,1
5,Right,LMC,Tone,Clear,14,5,1,0.900388100002601,2
5,Right,LMC,Tone,Clear,15,2,0,0.730875900000683,4
5,Right,LMC,Tone,Clear,16,3,0,1.13467970000056,2
5,Right,LMC,Tone,Clear,17,2,0,1.0649259999991,3
5,Right,LMC,Tone,Clear,18,4,1,1.21484269999928,2
5,Right,LMC,Tone,Clear,19,5,1,0.928874500001257,3
5,Right,LMC,Tone,Clear,20,4,1,0.892264300000534,3
5,Right,LMC,Tone,Clear,21,1,0,0.822270399999979,4
5,Right,LMC,Tone,Clear,22,5,1,0.906577699999616,3
5,Right,LMC,Tone,Clear,23,1,0,0.838846800001193,5
5,Right,LMC,Tone,Clear,24,2,0,1.13294740000129,5
5,Right,LMC,Tone,Clear,25,2,0,1.15322409999862,2
5,Right,LMC,Tone,Clear,26,2,0,0.888932900001237,4
5,Right,LMC,Tone,Clear,27,5,1,0.751474699998653,1
5,Right,LMC,Tone,Clear,28,3,1,1.68766239999968,4
5,Right,LMC,Tone,Clear,29,1,0,0.78930340000079,3
5,Right,LMC,Tone,Clear,30,1,0,0.834333299997525,3
5,Right,LMC,Tone,Clear,31,3,1,0.826126100000693,2
5,Right,LMC,Tone,Clear,32,4,1,0.859558199997991,4
5,Right,LMC,Tone,Clear,33,1,0,0.749682599998778,2
5,Right,LMC,Tone,Clear,34,4,1,0.727442799998244,4
5,Right,LMC,Tone,Clear,35,3,1,0.836578800001007,5
5,Right,LMC,Tone,Clear,36,3,1,0.969724399998086,3
5,Right,LMC,Tone,Clear,37,3,1,0.796752900001593,5
5,Right,LMC,Tone,Clear,38,3,1,1.09253589999935,1
5,Right,LMC,Tone,Clear,39,4,1,1.38727400000062,3
5,Right,LMC,Tone,Clear,40,1,0,1.01217120000001,3
5,Right,LMC,Tone,Clear,41,3,1,1.18702389999817,3
5,Right,LMC,Tone,Clear,42,5,1,0.823733699999138,4
5,Right,LMC,Tone,Clear,43,4,1,0.886494300000777,2
5,Right,LMC,Tone,Clear,44,1,0,0.740615499998967,2
5,Right,LMC,Tone,Clear,45,4,1,0.814392600001156,3
5,Right,LMC,Tone,Clear,46,1,0,0.71186569999918,1
5,Right,LMC,Tone,Clear,47,5,1,0.735456899998098,3
5,Right,LMC,Tone,Clear,48,4,1,0.819566400001349,5
5,Right,LMC,Tone,Clear,49,5,1,0.843479499999376,2
5,Right,LMC,Tone,Clear,50,3,1,1.14817599999878,3
5,Right,LMC,Tone,Clear,51,3,1,0.906341800000519,4
5,Right,LMC,Tone,Clear,52,2,0,0.956947099999525,4
5,Right,LMC,Tone,Clear,53,5,1,0.751205200002005,3
5,Right,LMC,Tone,Clear,54,1,0,0.85357550000117,4
5,Right,LMC,Tone,Clear,55,3,0,1.35394649999944,5
5,Right,LMC,Tone,Clear,56,1,0,1.31568790000165,5
5,Right,LMC,Tone,Clear,57,2,0,0.966081900001882,1
5,Right,LMC,Tone,Clear,58,4,1,0.846771199998329,1
5,Right,LMC,Tone,Clear,59,4,1,1.35382730000129,4
5,Right,LMC,Tone,Clear,60,3,1,1.06649579999794,3
5,Right,LMC,Tone,Clear,61,2,0,1.00187809999989,3
5,Right,LMC,Tone,Clear,62,3,0,1.41737560000183,1
5,Right,LMC,Tone,Clear,63,5,1,0.750249699998676,5
5,Right,LMC,Tone,Clear,64,4,1,1.17145309999978,2
5,Right,LMC,Tone,Clear,65,3,0,0.903466399999161,1
5,Right,LMC,Tone,Clear,66,3,0,1.15998570000011,2
5,Right,LMC,Tone,Clear,67,4,1,0.854960399999982,3
5,Right,LMC,Tone,Clear,68,1,0,1.21442690000185,3
5,Right,LMC,Tone,Clear,69,3,1,1.09826700000121,4
5,Right,LMC,Tone,Clear,70,4,1,1.17699970000103,4
5,Right,LMC,Tone,Clear,71,3,1,1.21601609999925,5
5,Right,LMC,Tone,Clear,72,2,0,0.892371800000547,3
5,Right,LMC,Tone,Clear,73,2,0,0.975581099999545,2
5,Right,LMC,Tone,Clear,74,3,0,1.03266369999983,2
5,Right,LMC,Tone,Clear,75,5,1,0.910301899999467,1
5,Right,LMC,Tone,Clear,76,2,0,0.80500199999733,4
5,Right,LMC,Tone,Clear,77,2,0,0.899851500002114,5
5,Right,LMC,Tone,Clear,78,2,0,1.1560129999998,2
5,Right,LMC,Cons,Clear,1,1,0,0.963529299999209,1
5,Right,LMC,Cons,Clear,2,2,0,0.779583399998955,1
5,Right,LMC,Cons,Clear,3,2,0,1.52809290000005,3
5,Right,LMC,Cons,Clear,4,2,0,0.917854200000875,2
5,Right,LMC,Cons,Clear,5,1,0,1.10670759999994,3
5,Right,LMC,Cons,Clear,6,4,1,0.720814299998892,2
5,Right,LMC,Cons,Clear,7,5,1,0.787346400000388,3
5,Right,LMC,Cons,Clear,8,5,1,0.696471100000053,5
5,Right,LMC,Cons,Clear,9,3,1,0.92296830000123,3
5,Right,LMC,Cons,Clear,10,3,1,0.706867099997908,2
5,Right,LMC,Cons,Clear,11,2,0,0.662313100001484,3
5,Right,LMC,Cons,Clear,12,3,1,1.06722269999955,1
5,Right,LMC,Cons,Clear,13,4,1,1.16717760000029,4
5,Right,LMC,Cons,Clear,14,4,1,0.722045999998954,2
5,Right,LMC,Cons,Clear,15,4,1,0.693369100001291,3
5,Right,LMC,Cons,Clear,16,4,1,0.695782899998449,4
5,Right,LMC,Cons,Clear,17,2,0,0.624560800002655,2
5,Right,LMC,Cons,Clear,18,1,0,0.964056900000287,5
5,Right,LMC,Cons,Clear,19,5,1,0.741307500000403,4
5,Right,LMC,Cons,Clear,20,1,0,0.730506600000808,2
5,Right,LMC,Cons,Clear,21,3,1,0.691360900000291,4
5,Right,LMC,Cons,Clear,22,5,1,0.871805200000381,1
5,Right,LMC,Cons,Clear,23,4,1,1.26736639999945,1
5,Right,LMC,Cons,Clear,24,2,0,0.762787500003469,5
5,Right,LMC,Cons,Clear,25,1,0,0.754146100000071,4
5,Right,LMC,Cons,Clear,26,2,0,0.748184299998684,4
5,Right,LMC,Cons,Clear,27,3,1,0.934717600001022,3
5,Right,LMC,Cons,Clear,28,3,1,1.05709669999851,1
5,Right,LMC,Cons,Clear,29,2,0,0.717204500000662,4
5,Right,LMC,Cons,Clear,30,3,1,0.939550700000837,5
5,Right,LMC,Cons,Clear,31,3,1,1.05515699999887,5
5,Right,LMC,Cons,Clear,32,3,1,1.12708310000016,3
5,Right,LMC,Cons,Clear,33,3,1,1.02636160000111,4
5,Right,LMC,Cons,Clear,34,1,0,0.810140800000227,3
5,Right,LMC,Cons,Clear,35,4,1,0.923149500002182,5
5,Right,LMC,Cons,Clear,36,5,1,1.33628509999835,3
5,Right,LMC,Cons,Clear,37,5,1,1.02584790000037,2
5,Right,LMC,Cons,Clear,38,4,1,0.756769499999791,3
5,Right,LMC,Cons,Clear,39,3,1,0.831170000001293,2
5,Right,LMC,Cons,Clear,40,1,0,0.798732399998698,1
5,Right,LMC,Cons,Clear,41,3,1,0.706118300000526,5
5,Right,LMC,Cons,Clear,42,3,1,0.861011799999687,2
5,Right,LMC,Cons,Clear,43,2,0,0.780239600000641,1
5,Right,LMC,Cons,Clear,44,2,0,1.30277329999808,5
5,Right,LMC,Cons,Clear,45,3,1,0.818314599997393,1
5,Right,LMC,Cons,Clear,46,1,0,0.75094579999859,4
5,Right,LMC,Cons,Clear,47,1,0,1.28138080000281,3
5,Right,LMC,Cons,Clear,48,5,1,0.777972500000033,2
5,Right,LMC,Cons,Clear,49,4,1,0.802109299998847,2
5,Right,LMC,Cons,Clear,50,2,0,1.12033050000173,2
5,Right,LMC,Cons,Clear,51,4,1,0.741206999999122,3
5,Right,LMC,Cons,Clear,52,4,1,0.863806699999259,5
5,Right,LMC,Cons,Clear,53,3,1,0.731751800001803,4
5,Right,LMC,Cons,Clear,54,5,1,0.738256600001478,5
5,Right,LMC,Cons,Clear,55,5,1,0.669640600001003,4
5,Right,LMC,Cons,Clear,56,3,1,1.09731459999966,3
5,Right,LMC,Cons,Clear,57,4,1,0.966048700000101,2
5,Right,LMC,Cons,Clear,58,3,1,0.969697799999267,3
5,Right,LMC,Cons,Clear,59,3,1,0.837652999998681,1
5,Right,LMC,Cons,Clear,60,2,0,0.848389200000383,2
5,Right,LMC,Cons,Clear,61,5,1,0.981596900001023,3
5,Right,LMC,Cons,Clear,62,5,1,0.785593699998572,3
5,Right,LMC,Cons,Clear,63,1,0,0.80341110000154,5
5,Right,LMC,Cons,Clear,64,2,0,1.02317310000217,3
5,Right,LMC,Cons,Clear,65,4,1,0.725575500000559,3
5,Right,LMC,Cons,Clear,66,3,0,1.01126199999999,5
5,Right,LMC,Cons,Clear,67,3,1,0.722152400001505,2
5,Right,LMC,Cons,Clear,68,5,1,1.26505320000069,1
5,Right,LMC,Cons,Clear,69,2,0,0.688233199998649,4
5,Right,LMC,Cons,Clear,70,3,1,1.15515849999792,3
5,Right,LMC,Cons,Clear,71,3,1,0.978439200000139,4
5,Right,LMC,Cons,Clear,72,4,1,0.789898099999846,4
5,Right,LMC,Cons,Clear,73,4,1,0.987820600003033,1
5,Right,LMC,Cons,Clear,74,1,0,0.830893700000161,3
5,Right,LMC,Cons,Clear,75,4,1,0.916780600000493,4
5,Right,LMC,Cons,Clear,76,2,0,1.03140679999706,3
5,Right,LMC,Cons,Clear,77,2,0,1.18678839999848,4
5,Right,LMC,Cons,Clear,78,1,0,1.6263203999988,2
5,Right,LMC,Tone,Noise,1,5,1,2.35441920000085,1
5,Right,LMC,Tone,Noise,2,2,0,1.02066819999891,2
5,Right,LMC,Tone,Noise,3,1,0,1.04541520000203,2
5,Right,LMC,Tone,Noise,4,2,0,0.907261799999105,2
5,Right,LMC,Tone,Noise,5,4,1,0.789527000000817,4
5,Right,LMC,Tone,Noise,6,4,1,0.752751299998636,5
5,Right,LMC,Tone,Noise,7,4,1,0.937892999998439,3
5,Right,LMC,Tone,Noise,8,3,1,1.29703329999757,4
5,Right,LMC,Tone,Noise,9,2,1,1.31359180000072,4
5,Right,LMC,Tone,Noise,10,3,1,1.02106799999819,3
5,Right,LMC,Tone,Noise,11,3,1,0.942562600001111,3
5,Right,LMC,Tone,Noise,12,3,1,0.837074099999882,2
5,Right,LMC,Tone,Noise,13,3,1,0.861188499999116,3
5,Right,LMC,Tone,Noise,14,4,1,0.830580300000292,2
5,Right,LMC,Tone,Noise,15,1,0,0.923204700000497,3
5,Right,LMC,Tone,Noise,16,4,1,1.45695469999919,2
5,Right,LMC,Tone,Noise,17,2,0,1.40715329999875,3
5,Right,LMC,Tone,Noise,18,1,0,0.889314600000944,3
5,Right,LMC,Tone,Noise,19,2,0,0.830596700001479,3
5,Right,LMC,Tone,Noise,20,1,0,0.802941300000384,1
5,Right,LMC,Tone,Noise,21,4,1,0.716996400002245,4
5,Right,LMC,Tone,Noise,22,3,1,1.04054589999942,4
5,Right,LMC,Tone,Noise,23,3,1,0.847694799998862,1
5,Right,LMC,Tone,Noise,24,1,0,0.892749099999492,4
5,Right,LMC,Tone,Noise,25,4,1,0.836298900001566,1
5,Right,LMC,Tone,Noise,26,5,1,0.810921200001758,3
5,Right,LMC,Tone,Noise,27,5,1,0.824481100000412,4
5,Right,LMC,Tone,Noise,28,3,1,0.910554799997044,5
5,Right,LMC,Tone,Noise,29,1,0,0.901252999999997,5
5,Right,LMC,Tone,Noise,30,5,1,0.744481099998666,2
5,Right,LMC,Tone,Noise,31,5,1,0.776254399999743,5
5,Right,LMC,Tone,Noise,32,3,0,1.04817589999948,5
5,Right,LMC,Tone,Noise,33,2,0,0.963894999997137,1
5,Right,LMC,Tone,Noise,34,2,0,1.39582920000248,5
5,Right,LMC,Tone,Noise,35,5,1,0.838524300001154,3
5,Right,LMC,Tone,Noise,36,4,1,0.798363400001108,3
5,Right,LMC,Tone,Noise,37,3,0,1.00416109999787,1
5,Right,LMC,Tone,Noise,38,2,0,0.882269999998243,4
5,Right,LMC,Tone,Noise,39,3,0,1.08041080000112,2
5,Right,LMC,Tone,Noise,40,2,0,0.82579220000116,3
5,Right,LMC,Tone,Noise,41,3,0,0.998422799999389,2
5,Right,LMC,Tone,Noise,42,3,0,1.41816420000032,1
5,Right,LMC,Tone,Noise,43,4,1,1.26552020000236,3
5,Right,LMC,Tone,Noise,44,5,1,0.847517800000787,4
5,Right,LMC,Tone,Noise,45,3,0,1.21234990000085,2
5,Right,LMC,Tone,Noise,46,1,0,1.02813529999912,3
5,Right,LMC,Tone,Noise,47,2,0,0.741611299999931,2
5,Right,LMC,Tone,Noise,48,5,1,0.793328499999916,3
5,Right,LMC,Tone,Noise,49,4,1,0.906494999999268,4
5,Right,LMC,Tone,Noise,50,3,0,1.50310030000037,5
5,Right,LMC,Tone,Noise,51,2,0,0.834609000001365,4
5,Right,LMC,Tone,Noise,52,2,0,0.971573300001182,5
5,Right,LMC,Tone,Noise,53,4,1,1.37261739999667,1
5,Right,LMC,Tone,Noise,54,1,0,1.35811350000222,1
5,Right,LMC,Tone,Noise,55,1,0,0.979959600001166,2
5,Right,LMC,Tone,Noise,56,2,0,1.12377109999943,1
5,Right,LMC,Tone,Noise,57,1,0,0.847824799999216,3
5,Right,LMC,Tone,Noise,58,2,0,1.11440870000297,2
5,Right,LMC,Tone,Noise,59,4,1,0.887080200001947,3
5,Right,LMC,Tone,Noise,60,1,0,1.10740369999985,4
5,Right,LMC,Tone,Noise,61,5,1,2.42618469999798,1
5,Right,LMC,Tone,Noise,62,3,0,1.22690190000139,5
5,Right,LMC,Tone,Noise,63,4,1,1.43705449999834,5
5,Right,LMC,Tone,Noise,64,5,1,0.775589600001695,3
5,Right,LMC,Tone,Noise,65,4,1,0.864932000000408,4
5,Right,LMC,Tone,Noise,66,3,1,0.790194399996835,3
5,Right,LMC,Tone,Noise,67,5,1,0.743917799998599,2
5,Right,LMC,Tone,Noise,68,2,0,0.871367199997621,3
5,Right,LMC,Tone,Noise,69,3,0,1.1543543000007,3
5,Right,LMC,Tone,Noise,70,5,1,0.732862999997451,5
5,Right,LMC,Tone,Noise,71,1,0,0.786790400001337,5
5,Right,LMC,Tone,Noise,72,2,0,1.06923860000097,4
5,Right,LMC,Tone,Noise,73,3,0,1.0756106000008,3
5,Right,LMC,Tone,Noise,74,4,1,1.12493929999982,2
5,Right,LMC,Tone,Noise,75,3,1,0.939196299998002,4
5,Right,LMC,Tone,Noise,76,3,1,1.63634599999932,4
5,Right,LMC,Tone,Noise,77,4,1,1.08395530000053,2
5,Right,LMC,Tone,Noise,78,3,1,1.79360079999969,1
5,Right,LMC,Cons,Noise,1,3,0,1.9726597000008,3
5,Right,LMC,Cons,Noise,2,3,1,1.61125940000056,1
5,Right,LMC,Cons,Noise,3,1,0,0.849073500001396,3
5,Right,LMC,Cons,Noise,4,4,0,0.674255099998845,3
5,Right,LMC,Cons,Noise,5,4,0,0.78475360000084,4
5,Right,LMC,Cons,Noise,6,4,0,0.749095999999554,3
5,Right,LMC,Cons,Noise,7,3,0,0.792442199999641,5
5,Right,LMC,Cons,Noise,8,2,0,0.79454160000023,3
5,Right,LMC,Cons,Noise,9,4,1,0.767454099997849,2
5,Right,LMC,Cons,Noise,10,2,0,0.729228699998203,3
5,Right,LMC,Cons,Noise,11,5,0,1.27894599999854,3
5,Right,LMC,Cons,Noise,12,2,0,0.768731399999524,4
5,Right,LMC,Cons,Noise,13,5,0,0.851647499999672,3
5,Right,LMC,Cons,Noise,14,1,0,0.808626800000638,5
5,Right,LMC,Cons,Noise,15,3,0,2.05180159999873,2
5,Right,LMC,Cons,Noise,16,2,0,1.17046560000017,5
5,Right,LMC,Cons,Noise,17,3,0,0.927609300000768,3
5,Right,LMC,Cons,Noise,18,5,0,0.947012000000541,4
5,Right,LMC,Cons,Noise,19,1,0,0.916750699998374,4
5,Right,LMC,Cons,Noise,20,1,0,1.39962029999879,3
5,Right,LMC,Cons,Noise,21,5,1,0.906605399999535,1
5,Right,LMC,Cons,Noise,22,4,0,0.728111700002046,4
5,Right,LMC,Cons,Noise,23,3,0,1.08626450000156,4
5,Right,LMC,Cons,Noise,24,4,1,1.02375050000046,1
5,Right,LMC,Cons,Noise,25,2,0,1.03220090000104,2
5,Right,LMC,Cons,Noise,26,4,0,1.23682140000165,2
5,Right,LMC,Cons,Noise,27,3,0,1.2232322000018,5
5,Right,LMC,Cons,Noise,28,3,0,0.787051800001791,4
5,Right,LMC,Cons,Noise,29,1,0,1.13882920000106,2
5,Right,LMC,Cons,Noise,30,2,0,0.903119600003265,1
5,Right,LMC,Cons,Noise,31,1,0,0.784362200000032,1
5,Right,LMC,Cons,Noise,32,3,0,0.945348400000512,1
5,Right,LMC,Cons,Noise,33,5,0,1.37387500000114,5
5,Right,LMC,Cons,Noise,34,3,0,1.52857269999731,2
5,Right,LMC,Cons,Noise,35,3,0,1.4763907000015,3
5,Right,LMC,Cons,Noise,36,2,0,1.38507709999976,2
5,Right,LMC,Cons,Noise,37,4,0,1.41917770000146,5
5,Right,LMC,Cons,Noise,38,5,0,1.20860679999896,2
5,Right,LMC,Cons,Noise,39,2,0,0.794112300001871,4
5,Right,LMC,Cons,Noise,40,3,0,0.895012700002553,3
5,Right,LMC,Cons,Noise,41,5,0,1.16703100000086,5
5,Right,LMC,Cons,Noise,42,5,0,1.65169869999954,1
5,Right,LMC,Cons,Noise,43,1,0,1.32455990000017,3
5,Right,LMC,Cons,Noise,44,4,1,1.10414110000056,1
5,Right,LMC,Cons,Noise,45,5,0,0.791321400000015,3
5,Right,LMC,Cons,Noise,46,5,0,0.959360099997866,4
5,Right,LMC,Cons,Noise,47,3,0,1.6378091000006,1
5,Right,LMC,Cons,Noise,48,3,0,0.80076420000114,5
5,Right,LMC,Cons,Noise,49,3,0,0.685896800001501,4
5,Right,LMC,Cons,Noise,50,2,0,0.808213699998305,4
5,Right,LMC,Cons,Noise,51,1,0,1.39614810000057,2
5,Right,LMC,Cons,Noise,52,5,0,0.883079799998086,2
5,Right,LMC,Cons,Noise,53,4,0,1.15265209999779,3
5,Right,LMC,Cons,Noise,54,5,0,1.49700829999711,3
5,Right,LMC,Cons,Noise,55,1,0,1.45678989999942,4
5,Right,LMC,Cons,Noise,56,3,0,1.65882659999988,3
5,Right,LMC,Cons,Noise,57,3,0,0.932088500001555,5
5,Right,LMC,Cons,Noise,58,4,1,1.3562165000003,2
5,Right,LMC,Cons,Noise,59,1,0,1.37213980000161,3
5,Right,LMC,Cons,Noise,60,2,0,0.857465800003411,2
5,Right,LMC,Cons,Noise,61,2,0,1.056370899998,1
5,Right,LMC,Cons,Noise,62,1,0,0.761701000003086,1
5,Right,LMC,Cons,Noise,63,3,0,0.71678460000112,2
5,Right,LMC,Cons,Noise,64,4,0,0.911879899998894,3
5,Right,LMC,Cons,Noise,65,2,0,0.870250500000111,5
5,Right,LMC,Cons,Noise,66,3,0,0.985742400000163,3
5,Right,LMC,Cons,Noise,67,4,0,1.03675230000226,2
5,Right,LMC,Cons,Noise,68,2,0,0.791769699997531,4
5,Right,LMC,Cons,Noise,69,2,0,0.922705699998915,3
5,Right,LMC,Cons,Noise,70,3,0,1.32643420000022,1
5,Right,LMC,Cons,Noise,71,4,0,0.81654780000099,4
5,Right,LMC,Cons,Noise,72,3,0,1.06694119999884,2
5,Right,LMC,Cons,Noise,73,4,0,0.756493600001704,4
5,Right,LMC,Cons,Noise,74,4,0,1.36026199999833,5
5,Right,LMC,Cons,Noise,75,2,0,1.12061410000024,2
5,Right,LMC,Cons,Noise,76,3,0,0.993208900003083,4
5,Right,LMC,Cons,Noise,77,2,0,0.892442699998355,3
5,Right,LMC,Cons,Noise,78,1,0,0.843851900001027,5
5,Right,TMC,Tone,Clear,1,5,1,1.09061479999218,1
5,Right,TMC,Tone,Clear,2,4,1,1.16370879998431,4
5,Right,TMC,Tone,Clear,3,4,1,0.849906299961731,2
5,Right,TMC,Tone,Clear,4,1,0,0.770543299964629,3
5,Right,TMC,Tone,Clear,5,4,1,0.816481200046837,3
5,Right,TMC,Tone,Clear,6,4,1,0.878273400012404,2
5,Right,TMC,Tone,Clear,7,5,1,0.839910699985921,5
5,Right,TMC,Tone,Clear,8,1,0,0.88956469995901,2
5,Right,TMC,Tone,Clear,9,3,1,1.41088330000639,2
5,Right,TMC,Tone,Clear,10,3,1,0.98400290007703,4
5,Right,TMC,Tone,Clear,11,3,1,1.07947009999771,1
5,Right,TMC,Tone,Clear,12,5,1,0.934406899963506,4
5,Right,TMC,Tone,Clear,13,1,0,1.14633449993562,4
5,Right,TMC,Tone,Clear,14,2,0,0.909292299998924,5
5,Right,TMC,Tone,Clear,15,3,0,1.12288559996523,4
5,Right,TMC,Tone,Clear,16,4,1,0.740775999962352,1
5,Right,TMC,Tone,Clear,17,3,1,1.34510690008756,5
5,Right,TMC,Tone,Clear,18,2,0,1.05649780004751,4
5,Right,TMC,Tone,Clear,19,1,0,0.81849420000799,3
5,Right,TMC,Tone,Clear,20,2,0,0.908562900032848,3
5,Right,TMC,Tone,Clear,21,4,1,0.964487400022335,4
5,Right,TMC,Tone,Clear,22,1,0,1.01089369994588,1
5,Right,TMC,Tone,Clear,23,5,1,0.857307299971581,3
5,Right,TMC,Tone,Clear,24,3,1,1.30973900004756,5
5,Right,TMC,Tone,Clear,25,3,1,1.28059549990576,1
5,Right,TMC,Tone,Clear,26,2,0,1.01647029991727,4
5,Right,TMC,Tone,Clear,27,5,1,0.761741299997084,2
5,Right,TMC,Tone,Clear,28,3,1,0.995427999994718,2
5,Right,TMC,Tone,Clear,29,4,1,0.900697299977764,3
5,Right,TMC,Tone,Clear,30,4,1,0.828772300039418,5
5,Right,TMC,Tone,Clear,31,3,0,0.93311579991132,3
5,Right,TMC,Tone,Clear,32,2,0,1.00965029990766,2
5,Right,TMC,Tone,Clear,33,2,0,0.782952100038528,2
5,Right,TMC,Tone,Clear,34,2,0,0.956668599974364,3
5,Right,TMC,Tone,Clear,35,2,0,1.10255750000943,1
5,Right,TMC,Tone,Clear,36,3,1,1.43942370009609,3
5,Right,TMC,Tone,Clear,37,5,1,1.62047870003153,3
5,Right,TMC,Tone,Clear,38,1,0,0.917031000019051,5
5,Right,TMC,Tone,Clear,39,3,1,1.32721490005497,3
5,Right,TMC,Tone,Clear,40,4,1,0.824349600006826,4
5,Right,TMC,Tone,Clear,41,2,0,0.870812400011346,3
5,Right,TMC,Tone,Clear,42,2,0,1.39358140004333,2
5,Right,TMC,Tone,Clear,43,1,0,1.28908459993545,3
5,Right,TMC,Tone,Clear,44,2,0,0.807864300091751,4
5,Right,TMC,Tone,Clear,45,2,0,0.85764550010208,3
5,Right,TMC,Tone,Clear,46,1,0,0.815221500000916,3
5,Right,TMC,Tone,Clear,47,3,1,1.34378800005652,5
5,Right,TMC,Tone,Clear,48,2,0,0.878183000022545,1
5,Right,TMC,Tone,Clear,49,3,1,1.2056723999558,3
5,Right,TMC,Tone,Clear,50,1,0,1.02990969992243,5
5,Right,TMC,Tone,Clear,51,3,1,1.00242470006924,4
5,Right,TMC,Tone,Clear,52,4,1,1.07830719999038,2
5,Right,TMC,Tone,Clear,53,3,1,0.829201399930753,2
5,Right,TMC,Tone,Clear,54,2,0,0.851380699896254,4
5,Right,TMC,Tone,Clear,55,3,1,0.880820999969728,2
5,Right,TMC,Tone,Clear,56,5,1,0.943358900025487,5
5,Right,TMC,Tone,Clear,57,1,0,0.839226499898359,2
5,Right,TMC,Tone,Clear,58,3,1,0.803660199977458,3
5,Right,TMC,Tone,Clear,59,5,1,0.772303699981421,2
5,Right,TMC,Tone,Clear,60,4,1,0.937101599993184,5
5,Right,TMC,Tone,Clear,61,3,0,0.956781100016087,5
5,Right,TMC,Tone,Clear,62,5,1,0.714587999973446,3
5,Right,TMC,Tone,Clear,63,1,0,0.758493099943735,4
5,Right,TMC,Tone,Clear,64,4,1,0.726743099978194,1
5,Right,TMC,Tone,Clear,65,3,1,1.14815380005166,1
5,Right,TMC,Tone,Clear,66,4,1,0.921776700066403,3
5,Right,TMC,Tone,Clear,67,3,1,0.885939199943095,1
5,Right,TMC,Tone,Clear,68,1,0,0.863364799995907,1
5,Right,TMC,Tone,Clear,69,4,1,0.848289099987596,4
5,Right,TMC,Tone,Clear,70,5,1,0.802058400004171,3
5,Right,TMC,Tone,Clear,71,5,1,0.733141400036402,4
5,Right,TMC,Tone,Clear,72,3,1,1.12425380002242,4
5,Right,TMC,Tone,Clear,73,3,1,0.975329900044017,3
5,Right,TMC,Tone,Clear,74,4,1,0.826205500052311,2
5,Right,TMC,Tone,Clear,75,2,0,0.780690100044012,2
5,Right,TMC,Tone,Clear,76,4,1,0.955649700015783,3
5,Right,TMC,Tone,Clear,77,5,1,0.749000399955548,1
5,Right,TMC,Tone,Clear,78,2,0,0.800380000029691,5
5,Right,TMC,Cons,Clear,1,1,0,1.06103240000084,3
5,Right,TMC,Cons,Clear,2,3,1,0.867623600061052,3
5,Right,TMC,Cons,Clear,3,3,0,1.45450210000854,1
5,Right,TMC,Cons,Clear,4,3,0,1.23274630005471,5
5,Right,TMC,Cons,Clear,5,1,0,0.938065199996345,1
5,Right,TMC,Cons,Clear,6,3,0,1.1963667999953,4
5,Right,TMC,Cons,Clear,7,1,0,1.41969610005617,3
5,Right,TMC,Cons,Clear,8,4,1,0.868284599971958,3
5,Right,TMC,Cons,Clear,9,4,1,0.913091399939731,3
5,Right,TMC,Cons,Clear,10,3,1,1.18680679996032,3
5,Right,TMC,Cons,Clear,11,4,1,1.13734889996704,5
5,Right,TMC,Cons,Clear,12,1,0,0.84767130005639,5
5,Right,TMC,Cons,Clear,13,1,0,0.891021099989302,4
5,Right,TMC,Cons,Clear,14,2,0,1.00070199999027,3
5,Right,TMC,Cons,Clear,15,5,1,1.00913350004703,3
5,Right,TMC,Cons,Clear,16,1,0,0.975445599993691,2
5,Right,TMC,Cons,Clear,17,2,0,1.06369390001055,2
5,Right,TMC,Cons,Clear,18,2,0,1.0833254000172,4
5,Right,TMC,Cons,Clear,19,2,0,1.08224809996318,1
5,Right,TMC,Cons,Clear,20,5,1,0.936905300011858,5
5,Right,TMC,Cons,Clear,21,4,1,0.991033399943262,4
5,Right,TMC,Cons,Clear,22,2,0,0.982088300050236,5
5,Right,TMC,Cons,Clear,23,3,1,1.05797760002315,5
5,Right,TMC,Cons,Clear,24,4,1,0.904517800081521,2
5,Right,TMC,Cons,Clear,25,4,1,0.938508299994282,1
5,Right,TMC,Cons,Clear,26,5,1,0.813202899997123,2
5,Right,TMC,Cons,Clear,27,5,1,1.31341469998006,3
5,Right,TMC,Cons,Clear,28,3,1,1.04643390001729,3
5,Right,TMC,Cons,Clear,29,3,0,0.885011299978942,2
5,Right,TMC,Cons,Clear,30,2,0,0.88850200001616,2
5,Right,TMC,Cons,Clear,31,3,0,1.22395749995485,4
5,Right,TMC,Cons,Clear,32,3,1,0.869069300009869,1
5,Right,TMC,Cons,Clear,33,3,0,0.999839599942788,2
5,Right,TMC,Cons,Clear,34,5,1,0.815911300014704,4
5,Right,TMC,Cons,Clear,35,4,1,0.949335100012831,2
5,Right,TMC,Cons,Clear,36,2,0,0.714781899936497,3
5,Right,TMC,Cons,Clear,37,4,1,0.798074800055474,4
5,Right,TMC,Cons,Clear,38,5,1,0.808912500040606,1
5,Right,TMC,Cons,Clear,39,2,0,1.00311170006171,4
5,Right,TMC,Cons,Clear,40,5,1,0.706711099948734,3
5,Right,TMC,Cons,Clear,41,4,1,0.801356900017709,3
5,Right,TMC,Cons,Clear,42,5,1,0.769353799987584,4
5,Right,TMC,Cons,Clear,43,4,1,0.842933499952778,2
5,Right,TMC,Cons,Clear,44,3,0,0.808455800055526,1
5,Right,TMC,Cons,Clear,45,1,0,0.832052899990231,2
5,Right,TMC,Cons,Clear,46,3,1,1.1178249999648,1
5,Right,TMC,Cons,Clear,47,3,1,0.818498799926601,2
5,Right,TMC,Cons,Clear,48,4,1,0.957665299996734,4
5,Right,TMC,Cons,Clear,49,2,0,0.860538200009614,1
5,Right,TMC,Cons,Clear,50,5,1,1.38749429991003,3
5,Right,TMC,Cons,Clear,51,2,0,0.868574099964462,2
5,Right,TMC,Cons,Clear,52,4,1,0.814878200064413,4
5,Right,TMC,Cons,Clear,53,3,1,0.982103600050323,2
5,Right,TMC,Cons,Clear,54,3,0,1.01488000003155,5
5,Right,TMC,Cons,Clear,55,2,0,0.980220799916424,3
5,Right,TMC,Cons,Clear,56,3,1,0.996491799945943,3
5,Right,TMC,Cons,Clear,57,4,1,0.921865599928424,5
5,Right,TMC,Cons,Clear,58,2,0,0.800626599928364,4
5,Right,TMC,Cons,Clear,59,2,0,1.14498690003529,5
5,Right,TMC,Cons,Clear,60,3,1,1.17358559998684,3
5,Right,TMC,Cons,Clear,61,1,0,1.08639839990065,3
5,Right,TMC,Cons,Clear,62,1,0,0.90323980001267,1
5,Right,TMC,Cons,Clear,63,2,0,0.870471699978225,2
5,Right,TMC,Cons,Clear,64,2,0,0.86376650002785,3
5,Right,TMC,Cons,Clear,65,4,1,0.82851090002805,2
5,Right,TMC,Cons,Clear,66,3,0,0.829506199923344,5
5,Right,TMC,Cons,Clear,67,3,0,1.21469930000603,4
5,Right,TMC,Cons,Clear,68,3,1,1.03048640000634,3
5,Right,TMC,Cons,Clear,69,2,0,0.950822999933735,4
5,Right,TMC,Cons,Clear,70,5,1,0.94477389997337,1
5,Right,TMC,Cons,Clear,71,4,1,0.806587300030515,3
5,Right,TMC,Cons,Clear,72,5,1,0.79276059998665,2
5,Right,TMC,Cons,Clear,73,1,0,0.789174599922262,4
5,Right,TMC,Cons,Clear,74,1,0,0.816959599964321,5
5,Right,TMC,Cons,Clear,75,3,1,0.849373899982311,4
5,Right,TMC,Cons,Clear,76,4,1,0.946542299934663,1
5,Right,TMC,Cons,Clear,77,1,0,0.813762800069526,3
5,Right,TMC,Cons,Clear,78,5,1,0.793022199999541,5
5,Right,TMC,Tone,Noise,1,3,1,1.30340899992734,5
5,Right,TMC,Tone,Noise,2,3,1,0.799033400020562,2
5,Right,TMC,Tone,Noise,3,4,1,0.858824900002219,5
5,Right,TMC,Tone,Noise,4,4,1,0.851519900024869,4
5,Right,TMC,Tone,Noise,5,4,1,0.892566199996509,3
5,Right,TMC,Tone,Noise,6,5,1,0.92400389991235,3
5,Right,TMC,Tone,Noise,7,1,0,0.756280199973844,3
5,Right,TMC,Tone,Noise,8,2,0,0.940509899985045,3
5,Right,TMC,Tone,Noise,9,5,1,0.863012699992396,4
5,Right,TMC,Tone,Noise,10,2,0,0.825729400035925,1
5,Right,TMC,Tone,Noise,11,1,0,0.901812799973413,3
5,Right,TMC,Tone,Noise,12,5,1,0.681195099954493,2
5,Right,TMC,Tone,Noise,13,5,1,0.906760399928316,1
5,Right,TMC,Tone,Noise,14,4,1,0.780442500021309,3
5,Right,TMC,Tone,Noise,15,2,0,0.957242300035432,4
5,Right,TMC,Tone,Noise,16,1,0,1.16100580000784,1
5,Right,TMC,Tone,Noise,17,4,1,0.790298699983396,4
5,Right,TMC,Tone,Noise,18,3,1,0.810255500022322,3
5,Right,TMC,Tone,Noise,19,1,0,0.837701300042681,5
5,Right,TMC,Tone,Noise,20,2,0,0.864007399999537,2
5,Right,TMC,Tone,Noise,21,3,1,0.933482400025241,4
5,Right,TMC,Tone,Noise,22,3,1,0.887457299977541,5
5,Right,TMC,Tone,Noise,23,4,1,0.859025300014764,1
5,Right,TMC,Tone,Noise,24,3,1,0.901344000012614,1
5,Right,TMC,Tone,Noise,25,5,1,0.893267999985255,3
5,Right,TMC,Tone,Noise,26,3,1,1.08972500008531,2
5,Right,TMC,Tone,Noise,27,3,1,0.96428009995725,3
5,Right,TMC,Tone,Noise,28,3,1,0.821773200063035,3
5,Right,TMC,Tone,Noise,29,4,1,0.835148100042716,2
5,Right,TMC,Tone,Noise,30,2,0,0.887044900096953,4
5,Right,TMC,Tone,Noise,31,3,1,1.01143319997936,4
5,Right,TMC,Tone,Noise,32,3,0,1.1338310999563,1
5,Right,TMC,Tone,Noise,33,1,0,1.00884459994268,4
5,Right,TMC,Tone,Noise,34,5,1,0.834727299981751,5
5,Right,TMC,Tone,Noise,35,2,0,0.809357000049204,2
5,Right,TMC,Tone,Noise,36,1,0,0.944164499989711,2
5,Right,TMC,Tone,Noise,37,2,0,0.851318400003947,5
5,Right,TMC,Tone,Noise,38,2,0,0.863097300054505,3
5,Right,TMC,Tone,Noise,39,4,1,1.03053390001878,2
5,Right,TMC,Tone,Noise,40,3,1,0.99471470003482,2
5,Right,TMC,Tone,Noise,41,5,1,0.843990999972448,3
5,Right,TMC,Tone,Noise,42,5,1,0.897951300023124,2
5,Right,TMC,Tone,Noise,43,2,0,0.97575060010422,2
5,Right,TMC,Tone,Noise,44,3,1,0.898007399984635,4
5,Right,TMC,Tone,Noise,45,4,1,0.738670799997635,4
5,Right,TMC,Tone,Noise,46,3,1,1.06449250003789,3
5,Right,TMC,Tone,Noise,47,4,1,0.803991199936718,2
5,Right,TMC,Tone,Noise,48,3,1,0.785662800073624,1
5,Right,TMC,Tone,Noise,49,2,0,0.780334400013089,2
5,Right,TMC,Tone,Noise,50,1,0,0.889779799967073,5
5,Right,TMC,Tone,Noise,51,2,0,0.889449499896728,5
5,Right,TMC,Tone,Noise,52,2,0,0.924144500051625,4
5,Right,TMC,Tone,Noise,53,3,1,0.88598300004378,3
5,Right,TMC,Tone,Noise,54,1,0,0.858452300075442,4
5,Right,TMC,Tone,Noise,55,1,0,0.716885800007731,1
5,Right,TMC,Tone,Noise,56,5,1,0.834755799965933,4
5,Right,TMC,Tone,Noise,57,4,1,0.992842999985442,5
5,Right,TMC,Tone,Noise,58,5,1,0.873302299994975,1
5,Right,TMC,Tone,Noise,59,3,0,1.04371249990072,3
5,Right,TMC,Tone,Noise,60,4,1,1.05674529995304,4
5,Right,TMC,Tone,Noise,61,3,1,0.883979499922134,1
5,Right,TMC,Tone,Noise,62,5,1,0.919444600003771,3
5,Right,TMC,Tone,Noise,63,4,1,0.83988749992568,3
5,Right,TMC,Tone,Noise,64,1,0,0.914426700095646,3
5,Right,TMC,Tone,Noise,65,4,1,3.60059399995953,1
5,Right,TMC,Tone,Noise,66,2,0,1.04775069991592,1
5,Right,TMC,Tone,Noise,67,1,0,0.936333399964496,2
5,Right,TMC,Tone,Noise,68,3,1,0.82061379996594,4
5,Right,TMC,Tone,Noise,69,3,1,1.0713936999673,5
5,Right,TMC,Tone,Noise,70,1,0,0.937195200007409,3
5,Right,TMC,Tone,Noise,71,3,1,0.943703299970366,5
5,Right,TMC,Tone,Noise,72,5,1,0.87798950006254,5
5,Right,TMC,Tone,Noise,73,2,0,0.787259900011122,4
5,Right,TMC,Tone,Noise,74,3,1,0.972393000032753,2
5,Right,TMC,Tone,Noise,75,2,0,0.892154600005597,3
5,Right,TMC,Tone,Noise,76,4,1,0.751721099950373,2
5,Right,TMC,Tone,Noise,77,4,1,0.698838399956003,3
5,Right,TMC,Tone,Noise,78,2,0,0.827950299950317,3
5,Right,TMC,Cons,Noise,1,3,0,0.687324699945748,5
5,Right,TMC,Cons,Noise,2,1,0,0.71700389997568,5
5,Right,TMC,Cons,Noise,3,3,0,0.773218799964525,4
5,Right,TMC,Cons,Noise,4,4,1,0.978275300003588,2
5,Right,TMC,Cons,Noise,5,1,0,0.762707999907434,4
5,Right,TMC,Cons,Noise,6,4,0,1.37696970009711,3
5,Right,TMC,Cons,Noise,7,3,0,0.793787900009193,3
5,Right,TMC,Cons,Noise,8,2,0,0.723390399944037,3
5,Right,TMC,Cons,Noise,9,2,0,0.736199900042266,4
5,Right,TMC,Cons,Noise,10,4,0,0.779147500055842,4
5,Right,TMC,Cons,Noise,11,5,0,0.740577699965797,3
5,Right,TMC,Cons,Noise,12,4,0,0.775518199894577,5
5,Right,TMC,Cons,Noise,13,4,1,1.00349599996116,2
5,Right,TMC,Cons,Noise,14,3,0,0.756324699963443,4
5,Right,TMC,Cons,Noise,15,4,0,0.877363200066611,3
5,Right,TMC,Cons,Noise,16,1,0,0.970709200017154,3
5,Right,TMC,Cons,Noise,17,2,0,0.764177299919538,3
5,Right,TMC,Cons,Noise,18,5,0,1.13225350005087,5
5,Right,TMC,Cons,Noise,19,4,1,0.895074800006114,1
5,Right,TMC,Cons,Noise,20,3,0,1.25227649998851,3
5,Right,TMC,Cons,Noise,21,4,0,1.16073510004207,4
5,Right,TMC,Cons,Noise,22,3,0,1.22152600006666,3
5,Right,TMC,Cons,Noise,23,1,0,1.15423330001067,2
5,Right,TMC,Cons,Noise,24,3,0,1.62492960004602,1
5,Right,TMC,Cons,Noise,25,5,0,1.32079550006893,4
5,Right,TMC,Cons,Noise,26,2,0,1.47466130007524,2
5,Right,TMC,Cons,Noise,27,2,0,1.0356785999611,2
5,Right,TMC,Cons,Noise,28,3,0,1.13364619994536,1
5,Right,TMC,Cons,Noise,29,2,0,1.50331729999743,4
5,Right,TMC,Cons,Noise,30,3,0,1.24577260005753,2
5,Right,TMC,Cons,Noise,31,3,0,1.04080419999082,2
5,Right,TMC,Cons,Noise,32,5,0,1.27533079998102,2
5,Right,TMC,Cons,Noise,33,5,0,1.03903719992377,1
5,Right,TMC,Cons,Noise,34,2,0,1.01155589998234,5
5,Right,TMC,Cons,Noise,35,1,0,1.33948029996827,1
5,Right,TMC,Cons,Noise,36,5,0,1.44561440008692,3
5,Right,TMC,Cons,Noise,37,2,0,1.14650140004233,1
5,Right,TMC,Cons,Noise,38,3,0,1.28498939995188,5
5,Right,TMC,Cons,Noise,39,1,0,1.53244880004786,3
5,Right,TMC,Cons,Noise,40,1,0,1.35122790001333,5
5,Right,TMC,Cons,Noise,41,2,0,1.47269840002991,3
5,Right,TMC,Cons,Noise,42,3,1,1.80031610000879,2
5,Right,TMC,Cons,Noise,43,2,0,1.42421969992574,2
5,Right,TMC,Cons,Noise,44,4,0,1.16545359999873,2
5,Right,TMC,Cons,Noise,45,1,0,1.39392459997907,2
5,Right,TMC,Cons,Noise,46,3,0,1.24402179999743,4
5,Right,TMC,Cons,Noise,47,4,0,1.19220739998855,4
5,Right,TMC,Cons,Noise,48,4,0,1.07130020007025,4
5,Right,TMC,Cons,Noise,49,5,0,1.12331089994404,3
5,Right,TMC,Cons,Noise,50,5,0,1.03412700002082,3
5,Right,TMC,Cons,Noise,51,2,0,0.925340799964033,4
5,Right,TMC,Cons,Noise,52,1,0,1.46561459999066,1
5,Right,TMC,Cons,Noise,53,5,0,1.17542210000101,4
5,Right,TMC,Cons,Noise,54,2,0,1.32648410007823,5
5,Right,TMC,Cons,Noise,55,4,0,1.10754230001476,3
5,Right,TMC,Cons,Noise,56,3,0,0.913821700029075,5
5,Right,TMC,Cons,Noise,57,4,0,1.01218570000492,1
5,Right,TMC,Cons,Noise,58,4,0,1.02442949998658,3
5,Right,TMC,Cons,Noise,59,2,0,0.915936199948192,1
5,Right,TMC,Cons,Noise,60,1,0,1.13743639993481,3
5,Right,TMC,Cons,Noise,61,2,0,1.07969149993733,3
5,Right,TMC,Cons,Noise,62,4,0,1.24475159996655,2
5,Right,TMC,Cons,Noise,63,1,0,0.951944600092247,3
5,Right,TMC,Cons,Noise,64,5,0,0.942671300028451,5
5,Right,TMC,Cons,Noise,65,1,0,1.01945589995012,4
5,Right,TMC,Cons,Noise,66,3,0,1.36101679992862,1
5,Right,TMC,Cons,Noise,67,2,0,1.0787668999983,4
5,Right,TMC,Cons,Noise,68,3,1,1.57788200001232,3
5,Right,TMC,Cons,Noise,69,4,0,0.877539200009778,5
5,Right,TMC,Cons,Noise,70,5,1,0.897950199898332,1
5,Right,TMC,Cons,Noise,71,3,0,0.908061300055124,3
5,Right,TMC,Cons,Noise,72,3,0,1.15106659999583,1
5,Right,TMC,Cons,Noise,73,3,0,1.11667050002143,4
5,Right,TMC,Cons,Noise,74,3,0,0.954146100091748,3
5,Right,TMC,Cons,Noise,75,3,0,0.816445100004785,5
5,Right,TMC,Cons,Noise,76,2,1,1.08743670000695,2
5,Right,TMC,Cons,Noise,77,5,1,1.03097560000606,2
5,Right,TMC,Cons,Noise,78,3,0,1.47751620004419,2
5,Right,Sham,Tone,Clear,1,3,0,1.23904700001003,3
5,Right,Sham,Tone,Clear,2,5,1,1.03435609998996,4
5,Right,Sham,Tone,Clear,3,5,1,0.816820199979702,5
5,Right,Sham,Tone,Clear,4,2,0,0.814709300000686,3
5,Right,Sham,Tone,Clear,5,4,1,1.04755469999509,4
5,Right,Sham,Tone,Clear,6,1,0,0.760637500003213,3
5,Right,Sham,Tone,Clear,7,1,0,0.867292499984615,1
5,Right,Sham,Tone,Clear,8,4,1,0.748799299995881,2
5,Right,Sham,Tone,Clear,9,3,1,1.37290010001743,3
5,Right,Sham,Tone,Clear,10,1,0,0.679753100004746,3
5,Right,Sham,Tone,Clear,11,3,1,1.19469659999595,3
5,Right,Sham,Tone,Clear,12,4,1,0.970068900001934,3
5,Right,Sham,Tone,Clear,13,4,1,0.703285499999765,4
5,Right,Sham,Tone,Clear,14,3,0,0.951670500013279,1
5,Right,Sham,Tone,Clear,15,3,0,0.951634099998046,1
5,Right,Sham,Tone,Clear,16,3,0,1.46324340000865,4
5,Right,Sham,Tone,Clear,17,4,1,0.824056200013729,3
5,Right,Sham,Tone,Clear,18,2,0,0.79910150001524,5
5,Right,Sham,Tone,Clear,19,1,0,1.45985509999446,2
5,Right,Sham,Tone,Clear,20,4,1,0.863827499997569,2
5,Right,Sham,Tone,Clear,21,3,1,2.10507580000558,5
5,Right,Sham,Tone,Clear,22,1,0,1.06400830001803,4
5,Right,Sham,Tone,Clear,23,3,0,1.42543409997597,4
5,Right,Sham,Tone,Clear,24,4,1,0.965565999998944,1
5,Right,Sham,Tone,Clear,25,4,1,1.24862050000229,5
5,Right,Sham,Tone,Clear,26,3,1,0.942620999994688,5
5,Right,Sham,Tone,Clear,27,5,1,0.983889299997827,2
5,Right,Sham,Tone,Clear,28,5,1,0.851375900005223,3
5,Right,Sham,Tone,Clear,29,1,0,0.947685799997998,5
5,Right,Sham,Tone,Clear,30,2,0,1.45974389999174,2
5,Right,Sham,Tone,Clear,31,3,0,1.27997050000704,2
5,Right,Sham,Tone,Clear,32,2,0,0.8447729999898,4
5,Right,Sham,Tone,Clear,33,3,0,0.842016700014938,2
5,Right,Sham,Tone,Clear,34,2,0,0.874249799991958,4
5,Right,Sham,Tone,Clear,35,2,0,0.870647800009465,2
5,Right,Sham,Tone,Clear,36,2,0,0.859816100011813,1
5,Right,Sham,Tone,Clear,37,5,1,0.810541100014234,3
5,Right,Sham,Tone,Clear,38,2,0,0.912576400005491,3
5,Right,Sham,Tone,Clear,39,5,1,0.901914700021734,1
5,Right,Sham,Tone,Clear,40,3,0,0.833335600007558,1
5,Right,Sham,Tone,Clear,41,5,1,0.752378299977863,3
5,Right,Sham,Tone,Clear,42,2,0,0.666366699995706,1
5,Right,Sham,Tone,Clear,43,1,0,0.704633999994257,1
5,Right,Sham,Tone,Clear,44,3,0,0.875656499993056,1
5,Right,Sham,Tone,Clear,45,3,1,0.810988699988229,3
5,Right,Sham,Tone,Clear,46,5,1,0.871680700016441,3
5,Right,Sham,Tone,Clear,47,5,1,0.793614900001558,4
5,Right,Sham,Tone,Clear,48,4,1,0.835589999973308,1
5,Right,Sham,Tone,Clear,49,3,0,1.14858390000882,5
5,Right,Sham,Tone,Clear,50,3,0,1.27962980000302,3
5,Right,Sham,Tone,Clear,51,5,1,0.796290899976157,1
5,Right,Sham,Tone,Clear,52,4,1,0.8045526999922,3
5,Right,Sham,Tone,Clear,53,3,0,1.17127039999468,2
5,Right,Sham,Tone,Clear,54,4,1,1.11697020000429,2
5,Right,Sham,Tone,Clear,55,4,1,1.12776779997512,5
5,Right,Sham,Tone,Clear,56,3,1,1.11497160000727,3
5,Right,Sham,Tone,Clear,57,4,1,0.866560399997979,4
5,Right,Sham,Tone,Clear,58,2,0,0.752415700000711,2
5,Right,Sham,Tone,Clear,59,1,0,0.924485900002765,2
5,Right,Sham,Tone,Clear,60,4,1,0.665705200022785,4
5,Right,Sham,Tone,Clear,61,4,1,1.30980210000416,3
5,Right,Sham,Tone,Clear,62,5,1,0.771032499993453,5
5,Right,Sham,Tone,Clear,63,1,0,1.16814100000192,3
5,Right,Sham,Tone,Clear,64,3,0,1.26151780001237,2
5,Right,Sham,Tone,Clear,65,2,0,0.861132199992426,3
5,Right,Sham,Tone,Clear,66,3,0,1.40386839999701,4
5,Right,Sham,Tone,Clear,67,2,0,0.798014300002251,3
5,Right,Sham,Tone,Clear,68,1,0,0.798890000005485,5
5,Right,Sham,Tone,Clear,69,2,0,0.952790599985747,2
5,Right,Sham,Tone,Clear,70,3,0,0.812292899994645,5
5,Right,Sham,Tone,Clear,71,1,0,0.802582199976314,3
5,Right,Sham,Tone,Clear,72,2,0,0.874441499996465,4
5,Right,Sham,Tone,Clear,73,2,0,1.07448140002089,4
5,Right,Sham,Tone,Clear,74,3,0,0.990404500014847,4
5,Right,Sham,Tone,Clear,75,5,1,1.06394849999924,2
5,Right,Sham,Tone,Clear,76,1,0,1.11159610000323,4
5,Right,Sham,Tone,Clear,77,4,1,0.793193999998039,2
5,Right,Sham,Tone,Clear,78,2,0,0.827352299995255,5
5,Right,Sham,Cons,Clear,1,3,1,1.81040359998588,1
5,Right,Sham,Cons,Clear,2,4,1,1.12436499999603,2
5,Right,Sham,Cons,Clear,3,4,1,2.02420400001574,4
5,Right,Sham,Cons,Clear,4,4,1,1.44144360002247,4
5,Right,Sham,Cons,Clear,5,1,0,0.862621100008255,3
5,Right,Sham,Cons,Clear,6,5,1,0.734358999994583,3
5,Right,Sham,Cons,Clear,7,5,1,0.765659700002288,2
5,Right,Sham,Cons,Clear,8,2,0,0.826693899987731,4
5,Right,Sham,Cons,Clear,9,3,1,0.824344599997858,3
5,Right,Sham,Cons,Clear,10,3,1,1.04766370001016,2
5,Right,Sham,Cons,Clear,11,3,1,0.765256099984981,3
5,Right,Sham,Cons,Clear,12,1,0,0.696635900007095,3
5,Right,Sham,Cons,Clear,13,2,0,0.968091099988669,2
5,Right,Sham,Cons,Clear,14,2,0,0.941275499993935,4
5,Right,Sham,Cons,Clear,15,3,1,0.853813499998068,3
5,Right,Sham,Cons,Clear,16,3,1,1.19834480001009,2
5,Right,Sham,Cons,Clear,17,3,1,0.84807889998774,1
5,Right,Sham,Cons,Clear,18,1,0,0.702202900021803,4
5,Right,Sham,Cons,Clear,19,5,1,0.729250400007004,1
5,Right,Sham,Cons,Clear,20,3,1,0.854056200012565,5
5,Right,Sham,Cons,Clear,21,5,1,0.908862499985844,4
5,Right,Sham,Cons,Clear,22,3,1,0.885816900001373,4
5,Right,Sham,Cons,Clear,23,1,0,0.692145900015021,5
5,Right,Sham,Cons,Clear,24,3,1,0.794169300002977,4
5,Right,Sham,Cons,Clear,25,2,0,1.25833929999499,5
5,Right,Sham,Cons,Clear,26,5,1,0.753422199981287,3
5,Right,Sham,Cons,Clear,27,5,1,0.819756299984874,5
5,Right,Sham,Cons,Clear,28,4,1,0.693680500000482,2
5,Right,Sham,Cons,Clear,29,4,1,0.905456700013019,3
5,Right,Sham,Cons,Clear,30,4,1,0.935567999986233,3
5,Right,Sham,Cons,Clear,31,2,0,1.17070550000062,3
5,Right,Sham,Cons,Clear,32,4,1,0.672428899997612,1
5,Right,Sham,Cons,Clear,33,1,0,0.735995200026082,1
5,Right,Sham,Cons,Clear,34,3,1,1.18621360001271,5
5,Right,Sham,Cons,Clear,35,2,0,0.874470399983693,3
5,Right,Sham,Cons,Clear,36,2,1,0.996751800004859,2
5,Right,Sham,Cons,Clear,37,4,1,1.32754189998377,5
5,Right,Sham,Cons,Clear,38,2,0,0.843861800007289,1
5,Right,Sham,Cons,Clear,39,1,0,0.857408099982422,2
5,Right,Sham,Cons,Clear,40,3,1,0.720470200001728,2
5,Right,Sham,Cons,Clear,41,1,0,1.26631159998942,1
5,Right,Sham,Cons,Clear,42,4,1,0.808894699992379,3
5,Right,Sham,Cons,Clear,43,4,1,0.781070900004124,4
5,Right,Sham,Cons,Clear,44,2,0,1.15015480000875,2
5,Right,Sham,Cons,Clear,45,3,1,0.644182599993655,2
5,Right,Sham,Cons,Clear,46,4,1,0.643630500009749,1
5,Right,Sham,Cons,Clear,47,1,0,0.659436299989466,4
5,Right,Sham,Cons,Clear,48,4,1,0.650300899986178,2
5,Right,Sham,Cons,Clear,49,1,0,0.98364349998883,2
5,Right,Sham,Cons,Clear,50,1,0,1.10777040000539,3
5,Right,Sham,Cons,Clear,51,2,0,1.27135619998444,2
5,Right,Sham,Cons,Clear,52,3,1,0.691366599989124,1
5,Right,Sham,Cons,Clear,53,5,1,0.948362499999348,1
5,Right,Sham,Cons,Clear,54,5,1,0.938047600007849,5
5,Right,Sham,Cons,Clear,55,1,0,0.912010400003055,5
5,Right,Sham,Cons,Clear,56,5,1,0.690755599993281,4
5,Right,Sham,Cons,Clear,57,5,1,0.74386630000663,2
5,Right,Sham,Cons,Clear,58,4,1,0.806391499994788,5
5,Right,Sham,Cons,Clear,59,5,1,0.707742300000973,3
5,Right,Sham,Cons,Clear,60,2,0,0.688197499985108,1
5,Right,Sham,Cons,Clear,61,2,0,0.798320700007025,4
5,Right,Sham,Cons,Clear,62,3,1,0.727163400006248,3
5,Right,Sham,Cons,Clear,63,4,1,0.849080899992259,3
5,Right,Sham,Cons,Clear,64,1,0,1.00920279999264,3
5,Right,Sham,Cons,Clear,65,2,0,1.01240529998904,5
5,Right,Sham,Cons,Clear,66,3,1,0.614183500001673,3
5,Right,Sham,Cons,Clear,67,2,0,0.700844700011658,3
5,Right,Sham,Cons,Clear,68,4,1,0.623677700001281,2
5,Right,Sham,Cons,Clear,69,3,1,1.04913869997836,5
5,Right,Sham,Cons,Clear,70,2,0,0.687914700014517,3
5,Right,Sham,Cons,Clear,71,2,0,0.72553809999954,4
5,Right,Sham,Cons,Clear,72,3,1,0.725731000013184,4
5,Right,Sham,Cons,Clear,73,3,1,0.728040199988754,4
5,Right,Sham,Cons,Clear,74,3,1,0.785805099993013,5
5,Right,Sham,Cons,Clear,75,4,1,0.725702499999898,4
5,Right,Sham,Cons,Clear,76,5,1,0.870945599977858,3
5,Right,Sham,Cons,Clear,77,3,1,0.764372799982084,3
5,Right,Sham,Cons,Clear,78,3,1,0.807104700012133,1
5,Right,Sham,Tone,Noise,1,3,0,1.29121230001329,3
5,Right,Sham,Tone,Noise,2,1,0,1.41534779997892,5
5,Right,Sham,Tone,Noise,3,1,0,1.21944970000186,3
5,Right,Sham,Tone,Noise,4,4,1,0.920592899987241,3
5,Right,Sham,Tone,Noise,5,5,1,1.5449731000117,1
5,Right,Sham,Tone,Noise,6,3,0,1.63953829999082,5
5,Right,Sham,Tone,Noise,7,5,1,1.03269789999467,5
5,Right,Sham,Tone,Noise,8,3,0,0.972075500001665,4
5,Right,Sham,Tone,Noise,9,5,1,1.16882089999854,3
5,Right,Sham,Tone,Noise,10,3,0,0.954789800016442,1
5,Right,Sham,Tone,Noise,11,3,1,1.34488940000301,2
5,Right,Sham,Tone,Noise,12,2,0,1.52150289999554,5
5,Right,Sham,Tone,Noise,13,3,0,1.29180429998087,3
5,Right,Sham,Tone,Noise,14,4,1,1.08725540002342,1
5,Right,Sham,Tone,Noise,15,2,0,1.22917109998525,4
5,Right,Sham,Tone,Noise,16,4,1,0.928138799994485,2
5,Right,Sham,Tone,Noise,17,4,1,1.1409233000013,2
5,Right,Sham,Tone,Noise,18,4,1,1.35527450000518,3
5,Right,Sham,Tone,Noise,19,5,1,1.04459669999778,2
5,Right,Sham,Tone,Noise,20,3,0,1.87036840000656,3
5,Right,Sham,Tone,Noise,21,5,1,1.99598219999461,4
5,Right,Sham,Tone,Noise,22,4,1,1.35045040000114,4
5,Right,Sham,Tone,Noise,23,1,0,0.990763899986632,3
5,Right,Sham,Tone,Noise,24,3,0,1.4293848000234,4
5,Right,Sham,Tone,Noise,25,4,1,0.852848899987293,5
5,Right,Sham,Tone,Noise,26,3,1,1.43641519997618,5
5,Right,Sham,Tone,Noise,27,1,0,0.85048939997796,4
5,Right,Sham,Tone,Noise,28,1,0,0.944153899996309,2
5,Right,Sham,Tone,Noise,29,2,0,1.01069520000601,2
5,Right,Sham,Tone,Noise,30,2,0,1.68232849999913,3
5,Right,Sham,Tone,Noise,31,2,0,1.548464099993,1
5,Right,Sham,Tone,Noise,32,2,0,1.14178569999058,4
5,Right,Sham,Tone,Noise,33,2,0,1.11952529998962,2
5,Right,Sham,Tone,Noise,34,4,1,0.855080000008456,4
5,Right,Sham,Tone,Noise,35,3,1,0.800055800005794,1
5,Right,Sham,Tone,Noise,36,5,1,0.891396799997892,3
5,Right,Sham,Tone,Noise,37,2,0,1.24858349998249,3
5,Right,Sham,Tone,Noise,38,3,1,1.02033940001274,2
5,Right,Sham,Tone,Noise,39,1,0,0.973485800001072,1
5,Right,Sham,Tone,Noise,40,3,1,0.760141300008399,1
5,Right,Sham,Tone,Noise,41,1,0,0.791606500017224,5
5,Right,Sham,Tone,Noise,42,2,0,1.22165660001338,5
5,Right,Sham,Tone,Noise,43,3,1,1.1156856000016,2
5,Right,Sham,Tone,Noise,44,4,1,0.95719739998458,1
5,Right,Sham,Tone,Noise,45,5,1,0.844107300014002,4
5,Right,Sham,Tone,Noise,46,4,1,0.836777499993332,2
5,Right,Sham,Tone,Noise,47,3,0,1.19379540000227,5
5,Right,Sham,Tone,Noise,48,2,0,0.880226000008406,2
5,Right,Sham,Tone,Noise,49,5,1,0.702333199995337,5
5,Right,Sham,Tone,Noise,50,4,1,0.856773500010604,5
5,Right,Sham,Tone,Noise,51,1,0,1.13358080000035,2
5,Right,Sham,Tone,Noise,52,4,1,0.982986799994251,4
5,Right,Sham,Tone,Noise,53,3,0,0.799836400023196,2
5,Right,Sham,Tone,Noise,54,4,1,0.719799000013154,2
5,Right,Sham,Tone,Noise,55,2,0,0.858106800005771,3
5,Right,Sham,Tone,Noise,56,3,1,0.966394599992782,3
5,Right,Sham,Tone,Noise,57,3,1,0.941652100009378,4
5,Right,Sham,Tone,Noise,58,3,0,0.833348999993177,5
5,Right,Sham,Tone,Noise,59,3,1,0.936910599994008,1
5,Right,Sham,Tone,Noise,60,2,0,1.11389219999546,1
5,Right,Sham,Tone,Noise,61,3,1,0.779337799991481,3
5,Right,Sham,Tone,Noise,62,4,1,0.917941599996993,3
5,Right,Sham,Tone,Noise,63,3,1,1.00013930001296,4
5,Right,Sham,Tone,Noise,64,2,1,0.766015900007915,2
5,Right,Sham,Tone,Noise,65,5,1,0.712786399992183,2
5,Right,Sham,Tone,Noise,66,2,0,1.02752830000827,4
5,Right,Sham,Tone,Noise,67,1,0,1.20161450002342,3
5,Right,Sham,Tone,Noise,68,4,1,0.896355100005167,3
5,Right,Sham,Tone,Noise,69,1,0,1.01064120000228,3
5,Right,Sham,Tone,Noise,70,5,1,0.816609500005143,3
5,Right,Sham,Tone,Noise,71,1,0,0.737547600001562,1
5,Right,Sham,Tone,Noise,72,2,1,0.864312699995935,4
5,Right,Sham,Tone,Noise,73,5,1,0.870730900001945,1
5,Right,Sham,Tone,Noise,74,4,1,0.832037300016964,4
5,Right,Sham,Tone,Noise,75,2,0,0.856259399995906,3
5,Right,Sham,Tone,Noise,76,1,0,0.59052050000173,4
5,Right,Sham,Tone,Noise,77,3,1,0.810835599986603,3
5,Right,Sham,Tone,Noise,78,5,1,0.838103299989598,3
5,Right,Sham,Cons,Noise,1,4,1,1.03907739999704,2
5,Right,Sham,Cons,Noise,2,4,0,1.50079350001761,3
5,Right,Sham,Cons,Noise,3,4,1,0.78273390000686,3
5,Right,Sham,Cons,Noise,4,4,0,1.06448539998382,5
5,Right,Sham,Cons,Noise,5,3,0,0.936295599996811,5
5,Right,Sham,Cons,Noise,6,4,0,0.861354499997105,4
5,Right,Sham,Cons,Noise,7,3,0,1.09668180000153,1
5,Right,Sham,Cons,Noise,8,3,0,0.891946999996435,5
5,Right,Sham,Cons,Noise,9,4,1,0.804642400005832,1
5,Right,Sham,Cons,Noise,10,5,0,0.852361099998234,5
5,Right,Sham,Cons,Noise,11,1,0,0.950051599997096,1
5,Right,Sham,Cons,Noise,12,4,0,0.849345399998128,4
5,Right,Sham,Cons,Noise,13,2,0,0.800295699998969,4
5,Right,Sham,Cons,Noise,14,5,0,0.799805300019216,3
5,Right,Sham,Cons,Noise,15,2,0,0.994021899998188,2
5,Right,Sham,Cons,Noise,16,2,0,0.680051399976946,5
5,Right,Sham,Cons,Noise,17,1,0,0.679150800016942,5
5,Right,Sham,Cons,Noise,18,3,0,0.693228300020564,3
5,Right,Sham,Cons,Noise,19,1,0,0.647782300016843,2
5,Right,Sham,Cons,Noise,20,1,0,1.06833360000746,3
5,Right,Sham,Cons,Noise,21,5,0,1.42226600000868,2
5,Right,Sham,Cons,Noise,22,2,0,1.18387570002233,3
5,Right,Sham,Cons,Noise,23,3,0,1.19734630000312,2
5,Right,Sham,Cons,Noise,24,2,0,1.67687140000635,1
5,Right,Sham,Cons,Noise,25,3,0,1.51583709998522,3
5,Right,Sham,Cons,Noise,26,5,0,1.85729480002192,1
5,Right,Sham,Cons,Noise,27,3,0,1.46655549999559,2
5,Right,Sham,Cons,Noise,28,2,0,0.999268500017934,4
5,Right,Sham,Cons,Noise,29,5,0,1.12879230000544,3
5,Right,Sham,Cons,Noise,30,3,0,1.43347740001627,1
5,Right,Sham,Cons,Noise,31,3,0,1.12728400001652,4
5,Right,Sham,Cons,Noise,32,4,0,1.26096680000774,2
5,Right,Sham,Cons,Noise,33,3,0,1.28073120000772,3
5,Right,Sham,Cons,Noise,34,2,0,1.54495929999393,2
5,Right,Sham,Cons,Noise,35,1,0,1.31935490001342,3
5,Right,Sham,Cons,Noise,36,5,0,1.55109880000236,4
5,Right,Sham,Cons,Noise,37,2,0,1.61238030000823,3
5,Right,Sham,Cons,Noise,38,3,0,1.75449429999571,4
5,Right,Sham,Cons,Noise,39,1,0,1.24262710000039,4
5,Right,Sham,Cons,Noise,40,5,0,1.51082269998733,3
5,Right,Sham,Cons,Noise,41,2,0,1.29676060000202,2
5,Right,Sham,Cons,Noise,42,4,0,1.17612299998291,3
5,Right,Sham,Cons,Noise,43,5,0,1.23716869999771,2
5,Right,Sham,Cons,Noise,44,5,0,1.18033140001353,5
5,Right,Sham,Cons,Noise,45,3,0,0.851857799978461,2
5,Right,Sham,Cons,Noise,46,5,0,0.984036899986677,3
5,Right,Sham,Cons,Noise,47,4,0,1.16244670000742,1
5,Right,Sham,Cons,Noise,48,4,0,1.787144300004,4
5,Right,Sham,Cons,Noise,49,4,0,1.36523349999334,2
5,Right,Sham,Cons,Noise,50,2,0,1.72796619997825,3
5,Right,Sham,Cons,Noise,51,1,0,0.996261099993717,5
5,Right,Sham,Cons,Noise,52,3,0,0.854571500007296,1
5,Right,Sham,Cons,Noise,53,3,0,0.844235399999889,4
5,Right,Sham,Cons,Noise,54,5,0,1.15707449999172,4
5,Right,Sham,Cons,Noise,55,2,0,1.19166700000642,4
5,Right,Sham,Cons,Noise,56,3,1,1.72701830000733,1
5,Right,Sham,Cons,Noise,57,4,0,1.69275800001924,2
5,Right,Sham,Cons,Noise,58,1,0,0.796773600013694,1
5,Right,Sham,Cons,Noise,59,3,0,1.1649608000007,3
5,Right,Sham,Cons,Noise,60,1,0,1.48652340000262,3
5,Right,Sham,Cons,Noise,61,3,0,1.5610342999862,2
5,Right,Sham,Cons,Noise,62,2,0,1.02596329999506,5
5,Right,Sham,Cons,Noise,63,1,0,1.04425070001162,4
5,Right,Sham,Cons,Noise,64,3,0,0.961109600000782,3
5,Right,Sham,Cons,Noise,65,2,1,1.2578971000039,1
5,Right,Sham,Cons,Noise,66,4,0,0.954903000005288,5
5,Right,Sham,Cons,Noise,67,3,0,0.904609399993205,5
5,Right,Sham,Cons,Noise,68,1,0,1.51961039999151,2
5,Right,Sham,Cons,Noise,69,2,0,1.09469769999851,4
5,Right,Sham,Cons,Noise,70,2,0,1.3586824000231,3
5,Right,Sham,Cons,Noise,71,5,1,1.00777779999771,1
5,Right,Sham,Cons,Noise,72,4,0,0.897706499992637,3
5,Right,Sham,Cons,Noise,73,3,0,1.66847969999071,3
5,Right,Sham,Cons,Noise,74,3,0,1.14884460001485,5
5,Right,Sham,Cons,Noise,75,4,0,0.855971400014823,4
5,Right,Sham,Cons,Noise,76,3,0,1.01101050002035,4
5,Right,Sham,Cons,Noise,77,2,0,1.90202120001777,2
5,Right,Sham,Cons,Noise,78,1,0,1.2418897000025,3
14,Left,LMC,Tone,Clear,1,2,0,0.725546000001486,1
14,Left,LMC,Tone,Clear,2,5,1,0.819191300019156,4
14,Left,LMC,Tone,Clear,3,3,1,0.922235700010788,4
14,Left,LMC,Tone,Clear,4,4,1,0.571618399990257,3
14,Left,LMC,Tone,Clear,5,2,0,0.633903399982955,4
14,Left,LMC,Tone,Clear,6,2,0,0.629912099975627,3
14,Left,LMC,Tone,Clear,7,5,1,0.626089700032026,3
14,Left,LMC,Tone,Clear,8,2,0,0.607686300005298,2
14,Left,LMC,Tone,Clear,9,4,0,0.593400100013241,2
14,Left,LMC,Tone,Clear,10,4,1,0.739264099975117,3
14,Left,LMC,Tone,Clear,11,4,1,0.542375199962407,1
14,Left,LMC,Tone,Clear,12,3,1,0.782034700037912,4
14,Left,LMC,Tone,Clear,13,5,1,0.595299399981741,1
14,Left,LMC,Tone,Clear,14,3,1,0.946292000007816,5
14,Left,LMC,Tone,Clear,15,2,0,0.778786399983801,3
14,Left,LMC,Tone,Clear,16,3,1,0.89819840004202,1
14,Left,LMC,Tone,Clear,17,3,1,0.671355800004676,3
14,Left,LMC,Tone,Clear,18,3,1,0.761184400005732,1
14,Left,LMC,Tone,Clear,19,3,1,0.579507799993735,2
14,Left,LMC,Tone,Clear,20,2,1,1.00957579998067,5
14,Left,LMC,Tone,Clear,21,5,1,0.66363080003066,2
14,Left,LMC,Tone,Clear,22,1,0,0.694201400037855,3
14,Left,LMC,Tone,Clear,23,3,1,0.803671500005294,2
14,Left,LMC,Tone,Clear,24,1,0,0.779936800012365,4
14,Left,LMC,Tone,Clear,25,4,1,0.647270599962212,4
14,Left,LMC,Tone,Clear,26,3,1,0.639389800024219,5
14,Left,LMC,Tone,Clear,27,2,0,0.764107900031377,2
14,Left,LMC,Tone,Clear,28,4,1,0.636364299978595,5
14,Left,LMC,Tone,Clear,29,4,1,0.662046600016765,4
14,Left,LMC,Tone,Clear,30,1,0,0.576355900033377,1
14,Left,LMC,Tone,Clear,31,4,1,0.711800299992319,2
14,Left,LMC,Tone,Clear,32,5,1,0.630517599987797,3
14,Left,LMC,Tone,Clear,33,3,1,0.675281999981962,3
14,Left,LMC,Tone,Clear,34,5,1,0.740157399966847,5
14,Left,LMC,Tone,Clear,35,3,1,0.751163900014944,3
14,Left,LMC,Tone,Clear,36,1,0,0.579065400001127,2
14,Left,LMC,Tone,Clear,37,1,1,0.611390299978666,5
14,Left,LMC,Tone,Clear,38,2,0,1.03681530000176,4
14,Left,LMC,Tone,Clear,39,1,0,0.74600670003565,3
14,Left,LMC,Tone,Clear,40,1,0,0.779311200021766,2
14,Left,LMC,Tone,Clear,41,4,1,0.623940400022548,4
14,Left,LMC,Tone,Clear,42,4,0,0.838160500046797,3
14,Left,LMC,Tone,Clear,43,5,1,0.655274099961389,4
14,Left,LMC,Tone,Clear,44,4,1,0.619748299999628,4
14,Left,LMC,Tone,Clear,45,3,1,0.881718799995724,5
14,Left,LMC,Tone,Clear,46,4,1,0.920878600038122,2
14,Left,LMC,Tone,Clear,47,3,1,0.639823400008027,5
14,Left,LMC,Tone,Clear,48,1,0,0.657447599980515,4
14,Left,LMC,Tone,Clear,49,2,0,0.616352099983487,2
14,Left,LMC,Tone,Clear,50,3,1,0.909995699999854,3
14,Left,LMC,Tone,Clear,51,5,1,0.674228899995796,3
14,Left,LMC,Tone,Clear,52,3,1,0.766578499984462,3
14,Left,LMC,Tone,Clear,53,3,1,0.721842999977525,2
14,Left,LMC,Tone,Clear,54,2,1,0.914277300005779,3
14,Left,LMC,Tone,Clear,55,2,1,0.882546000008006,4
14,Left,LMC,Tone,Clear,56,4,1,0.74449499999173,2
14,Left,LMC,Tone,Clear,57,2,0,0.772648499987554,4
14,Left,LMC,Tone,Clear,58,5,1,0.710160300019197,1
14,Left,LMC,Tone,Clear,59,5,1,0.652079499966931,3
14,Left,LMC,Tone,Clear,60,1,0,0.728262399963569,3
14,Left,LMC,Tone,Clear,61,1,0,0.540076899982523,1
14,Left,LMC,Tone,Clear,62,1,0,0.576704299950507,5
14,Left,LMC,Tone,Clear,63,3,1,0.649289399967529,2
14,Left,LMC,Tone,Clear,64,2,0,1.00034689996392,2
14,Left,LMC,Tone,Clear,65,3,1,0.838310999970417,4
14,Left,LMC,Tone,Clear,66,2,1,0.961001500021666,5
14,Left,LMC,Tone,Clear,67,2,1,0.797684199991636,3
14,Left,LMC,Tone,Clear,68,1,0,0.697678099968471,3
14,Left,LMC,Tone,Clear,69,4,1,0.591272799996659,5
14,Left,LMC,Tone,Clear,70,3,1,0.832146500004455,3
14,Left,LMC,Tone,Clear,71,4,1,0.738053700013552,1
14,Left,LMC,Tone,Clear,72,3,1,0.626619499991648,1
14,Left,LMC,Tone,Clear,73,5,1,0.700070299964864,5
14,Left,LMC,Tone,Clear,74,3,1,0.947648899978958,4
14,Left,LMC,Tone,Clear,75,5,1,0.574859000043944,2
14,Left,LMC,Tone,Clear,76,4,1,0.652394099975936,3
14,Left,LMC,Tone,Clear,77,2,0,0.775802200019825,1
14,Left,LMC,Tone,Clear,78,3,0,0.785292499989737,1
14,Left,LMC,Cons,Clear,1,5,1,1.13292559998808,4
14,Left,LMC,Cons,Clear,2,3,0,0.756269500008784,3
14,Left,LMC,Cons,Clear,3,4,0,0.813694100012071,1
14,Left,LMC,Cons,Clear,4,4,1,0.827890400018077,2
14,Left,LMC,Cons,Clear,5,3,0,0.889804099977482,3
14,Left,LMC,Cons,Clear,6,3,0,0.913500599970575,1
14,Left,LMC,Cons,Clear,7,2,0,0.786218299996108,4
14,Left,LMC,Cons,Clear,8,5,1,0.777193900023121,2
14,Left,LMC,Cons,Clear,9,3,1,0.829798000049777,2
14,Left,LMC,Cons,Clear,10,3,0,0.599852500017732,5
14,Left,LMC,Cons,Clear,11,3,0,0.733048500027508,2
14,Left,LMC,Cons,Clear,12,3,1,0.707168799999636,4
14,Left,LMC,Cons,Clear,13,5,1,0.774587299965788,3
14,Left,LMC,Cons,Clear,14,1,0,0.538064999971539,5
14,Left,LMC,Cons,Clear,15,2,0,0.614551200007554,3
14,Left,LMC,Cons,Clear,16,3,0,0.649591700057499,1
14,Left,LMC,Cons,Clear,17,4,1,0.626755899982527,5
14,Left,LMC,Cons,Clear,18,2,0,0.744783200032543,3
14,Left,LMC,Cons,Clear,19,1,0,0.780379900010303,2
14,Left,LMC,Cons,Clear,20,2,0,0.64216290001059,4
14,Left,LMC,Cons,Clear,21,3,0,0.707995000004303,3
14,Left,LMC,Cons,Clear,22,4,1,0.72480619995622,2
14,Left,LMC,Cons,Clear,23,4,0,0.476911700039636,4
14,Left,LMC,Cons,Clear,24,4,1,0.517753699969035,3
14,Left,LMC,Cons,Clear,25,2,0,0.525604000024032,2
14,Left,LMC,Cons,Clear,26,3,1,0.510000000009313,5
14,Left,LMC,Cons,Clear,27,2,0,0.53768939996371,5
14,Left,LMC,Cons,Clear,28,4,1,0.431090799975209,4
14,Left,LMC,Cons,Clear,29,4,1,0.6107711000368,3
14,Left,LMC,Cons,Clear,30,1,0,0.578566599986516,1
14,Left,LMC,Cons,Clear,31,3,1,0.463963799993508,4
14,Left,LMC,Cons,Clear,32,2,0,0.462347600026987,2
14,Left,LMC,Cons,Clear,33,1,0,0.436898600019049,4
14,Left,LMC,Cons,Clear,34,5,1,0.488988599972799,1
14,Left,LMC,Cons,Clear,35,5,1,0.505164199974388,3
14,Left,LMC,Cons,Clear,36,1,0,0.574074100004509,3
14,Left,LMC,Cons,Clear,37,1,0,0.62422699999297,3
14,Left,LMC,Cons,Clear,38,2,1,0.562740700028371,1
14,Left,LMC,Cons,Clear,39,5,1,0.585123099968769,5
14,Left,LMC,Cons,Clear,40,5,1,0.666036100010388,3
14,Left,LMC,Cons,Clear,41,3,0,0.689951500040479,5
14,Left,LMC,Cons,Clear,42,2,0,0.65945009997813,1
14,Left,LMC,Cons,Clear,43,4,1,0.601020100002643,3
14,Left,LMC,Cons,Clear,44,1,0,0.444937399995979,1
14,Left,LMC,Cons,Clear,45,1,0,0.475558900041506,2
14,Left,LMC,Cons,Clear,46,5,1,0.579632599954493,5
14,Left,LMC,Cons,Clear,47,3,0,0.701132799964398,1
14,Left,LMC,Cons,Clear,48,3,0,0.626269800006412,1
14,Left,LMC,Cons,Clear,49,1,0,0.530885000014678,5
14,Left,LMC,Cons,Clear,50,1,0,0.55479910003487,4
14,Left,LMC,Cons,Clear,51,3,0,0.554969199991319,4
14,Left,LMC,Cons,Clear,52,2,0,0.532365399994887,3
14,Left,LMC,Cons,Clear,53,3,1,0.531170699978247,4
14,Left,LMC,Cons,Clear,54,2,0,0.944270100037102,2
14,Left,LMC,Cons,Clear,55,4,1,0.57432760001393,4
14,Left,LMC,Cons,Clear,56,2,0,0.624374700011685,3
14,Left,LMC,Cons,Clear,57,4,1,0.690969299990684,3
14,Left,LMC,Cons,Clear,58,4,1,0.864356099977158,2
14,Left,LMC,Cons,Clear,59,5,1,0.608712399960496,3
14,Left,LMC,Cons,Clear,60,5,1,0.688514599984046,1
14,Left,LMC,Cons,Clear,61,4,1,0.535370900004637,2
14,Left,LMC,Cons,Clear,62,5,1,0.538951300026383,4
14,Left,LMC,Cons,Clear,63,5,1,0.761192700010724,2
14,Left,LMC,Cons,Clear,64,3,1,0.962792599981185,2
14,Left,LMC,Cons,Clear,65,3,1,0.679039800015744,2
14,Left,LMC,Cons,Clear,66,3,1,0.597735499963164,3
14,Left,LMC,Cons,Clear,67,3,0,0.705417099990882,3
14,Left,LMC,Cons,Clear,68,2,0,0.571776599972509,4
14,Left,LMC,Cons,Clear,69,2,1,0.626963999995496,2
14,Left,LMC,Cons,Clear,70,2,0,0.621892499970272,4
14,Left,LMC,Cons,Clear,71,4,1,0.518729100003839,5
14,Left,LMC,Cons,Clear,72,1,0,0.470287100004498,3
14,Left,LMC,Cons,Clear,73,3,0,0.600729900004808,5
14,Left,LMC,Cons,Clear,74,2,0,0.49006050004391,5
14,Left,LMC,Cons,Clear,75,4,1,0.547715299995616,1
14,Left,LMC,Cons,Clear,76,1,0,0.515740500006359,3
14,Left,LMC,Cons,Clear,77,4,0,0.499373899947386,4
14,Left,LMC,Cons,Clear,78,3,0,0.648615100013558,3
14,Left,LMC,Tone,Noise,1,2,0,1.74875720002456,4
14,Left,LMC,Tone,Noise,2,3,1,1.58170260000043,5
14,Left,LMC,Tone,Noise,3,5,1,0.87784939998528,5
14,Left,LMC,Tone,Noise,4,1,0,0.649829900008626,4
14,Left,LMC,Tone,Noise,5,2,0,0.561040499946103,2
14,Left,LMC,Tone,Noise,6,3,0,0.671856700035278,4
14,Left,LMC,Tone,Noise,7,1,0,0.617909199965652,3
14,Left,LMC,Tone,Noise,8,3,0,0.523546000011265,3
14,Left,LMC,Tone,Noise,9,4,1,0.8673606000375,2
14,Left,LMC,Tone,Noise,10,4,1,0.77657679998083,5
14,Left,LMC,Tone,Noise,11,3,1,0.557678500015754,2
14,Left,LMC,Tone,Noise,12,1,0,0.624920300033409,1
14,Left,LMC,Tone,Noise,13,4,1,0.642498999950476,3
14,Left,LMC,Tone,Noise,14,4,1,0.600819499988575,2
14,Left,LMC,Tone,Noise,15,5,1,0.591921899991576,2
14,Left,LMC,Tone,Noise,16,3,1,0.84855489997426,5
14,Left,LMC,Tone,Noise,17,2,0,0.560581300000194,2
14,Left,LMC,Tone,Noise,18,2,0,0.776076600013766,3
14,Left,LMC,Tone,Noise,19,3,0,0.774955500033684,3
14,Left,LMC,Tone,Noise,20,1,0,0.567426999972668,3
14,Left,LMC,Tone,Noise,21,2,0,0.526914999994915,1
14,Left,LMC,Tone,Noise,22,1,0,0.580785099999048,2
14,Left,LMC,Tone,Noise,23,5,0,0.592615200032014,4
14,Left,LMC,Tone,Noise,24,3,1,0.91083810001146,4
14,Left,LMC,Tone,Noise,25,2,0,0.697423600009643,5
14,Left,LMC,Tone,Noise,26,4,1,0.63949660002254,4
14,Left,LMC,Tone,Noise,27,4,1,0.559333500044886,1
14,Left,LMC,Tone,Noise,28,5,1,0.561645900015719,3
14,Left,LMC,Tone,Noise,29,5,1,0.561975100019481,1
14,Left,LMC,Tone,Noise,30,3,0,0.72721460001776,1
14,Left,LMC,Tone,Noise,31,2,0,0.73223229998257,3
14,Left,LMC,Tone,Noise,32,5,1,0.582215800008271,3
14,Left,LMC,Tone,Noise,33,3,0,0.8135406000074,3
14,Left,LMC,Tone,Noise,34,4,0,0.961214000009932,3
14,Left,LMC,Tone,Noise,35,3,1,0.691579099977389,2
14,Left,LMC,Tone,Noise,36,1,0,0.646928400034085,5
14,Left,LMC,Tone,Noise,37,4,1,0.617286599997897,4
14,Left,LMC,Tone,Noise,38,3,1,0.924843699962366,1
14,Left,LMC,Tone,Noise,39,2,0,0.69033060001675,4
14,Left,LMC,Tone,Noise,40,1,0,0.617595400020946,1
14,Left,LMC,Tone,Noise,41,1,0,0.63121839996893,4
14,Left,LMC,Tone,Noise,42,3,0,0.665587899973616,1
14,Left,LMC,Tone,Noise,43,3,1,0.813322199974209,4
14,Left,LMC,Tone,Noise,44,2,1,0.990683899959549,4
14,Left,LMC,Tone,Noise,45,4,1,0.681111700017937,4
14,Left,LMC,Tone,Noise,46,2,0,0.791070999985095,3
14,Left,LMC,Tone,Noise,47,5,1,0.560428199998569,1
14,Left,LMC,Tone,Noise,48,3,1,0.764740500017069,2
14,Left,LMC,Tone,Noise,49,5,1,0.605235400027595,3
14,Left,LMC,Tone,Noise,50,4,1,0.576489400002174,2
14,Left,LMC,Tone,Noise,51,4,1,0.768758299993351,5
14,Left,LMC,Tone,Noise,52,4,1,0.702570800029207,2
14,Left,LMC,Tone,Noise,53,3,1,0.585127099999227,2
14,Left,LMC,Tone,Noise,54,3,1,0.578733000031207,3
14,Left,LMC,Tone,Noise,55,2,0,0.571556400042027,2
14,Left,LMC,Tone,Noise,56,4,1,0.762283699994441,3
14,Left,LMC,Tone,Noise,57,3,1,1.03401820000727,5
14,Left,LMC,Tone,Noise,58,2,0,0.645789999980479,3
14,Left,LMC,Tone,Noise,59,5,1,0.594980699999724,5
14,Left,LMC,Tone,Noise,60,1,0,0.639620699977968,2
14,Left,LMC,Tone,Noise,61,1,0,0.634135299944319,3
14,Left,LMC,Tone,Noise,62,2,0,0.723057300026994,2
14,Left,LMC,Tone,Noise,63,4,1,0.747395000013057,1
14,Left,LMC,Tone,Noise,64,5,1,0.805099899997003,3
14,Left,LMC,Tone,Noise,65,2,0,0.63573290000204,4
14,Left,LMC,Tone,Noise,66,2,0,0.600641700031701,5
14,Left,LMC,Tone,Noise,67,4,1,0.74282200000016,4
14,Left,LMC,Tone,Noise,68,2,0,0.750317099969834,1
14,Left,LMC,Tone,Noise,69,5,1,0.669556699984241,2
14,Left,LMC,Tone,Noise,70,3,1,0.876152400043793,5
14,Left,LMC,Tone,Noise,71,5,1,0.751342800038401,4
14,Left,LMC,Tone,Noise,72,4,1,0.650683200045023,3
14,Left,LMC,Tone,Noise,73,3,0,0.835895100026391,3
14,Left,LMC,Tone,Noise,74,1,0,0.696488399989903,3
14,Left,LMC,Tone,Noise,75,3,0,0.948192699986976,1
14,Left,LMC,Tone,Noise,76,3,0,0.670924999983981,3
14,Left,LMC,Tone,Noise,77,3,1,0.920413499989081,4
14,Left,LMC,Tone,Noise,78,1,0,0.815020499983802,5
14,Left,LMC,Cons,Noise,1,1,0,0.99353609996615,4
14,Left,LMC,Cons,Noise,2,2,0,0.755094000021927,4
14,Left,LMC,Cons,Noise,3,2,0,0.60926890000701,3
14,Left,LMC,Cons,Noise,4,3,0,0.674460600013845,1
14,Left,LMC,Cons,Noise,5,4,1,0.723692899977323,2
14,Left,LMC,Cons,Noise,6,4,0,0.838134200021159,4
14,Left,LMC,Cons,Noise,7,4,0,0.555136899987701,5
14,Left,LMC,Cons,Noise,8,4,0,0.827629300008994,3
14,Left,LMC,Cons,Noise,9,3,0,0.780158600013237,2
14,Left,LMC,Cons,Noise,10,3,0,0.719005300023127,3
14,Left,LMC,Cons,Noise,11,3,0,0.551447000005282,4
14,Left,LMC,Cons,Noise,12,2,0,0.835733200015966,2
14,Left,LMC,Cons,Noise,13,5,1,0.676756599976216,2
14,Left,LMC,Cons,Noise,14,4,0,0.607967999996617,4
14,Left,LMC,Cons,Noise,15,2,0,0.892106599989347,1
14,Left,LMC,Cons,Noise,16,2,0,0.860691199952271,3
14,Left,LMC,Cons,Noise,17,1,0,0.69590310001513,3
14,Left,LMC,Cons,Noise,18,3,0,0.727619299956132,4
14,Left,LMC,Cons,Noise,19,1,0,0.880516299977899,2
14,Left,LMC,Cons,Noise,20,2,0,0.803737900045235,2
14,Left,LMC,Cons,Noise,21,1,0,0.737819599977229,5
14,Left,LMC,Cons,Noise,22,5,1,0.646821700036526,5
14,Left,LMC,Cons,Noise,23,5,1,0.596784199995454,3
14,Left,LMC,Cons,Noise,24,3,1,0.614985899999738,5
14,Left,LMC,Cons,Noise,25,2,0,0.682345900044311,5
14,Left,LMC,Cons,Noise,26,5,1,0.809985400002915,4
14,Left,LMC,Cons,Noise,27,4,1,0.962500000023283,2
14,Left,LMC,Cons,Noise,28,3,0,0.834791700006463,3
14,Left,LMC,Cons,Noise,29,3,0,1.20284230000107,3
14,Left,LMC,Cons,Noise,30,2,0,0.6969342000084,4
14,Left,LMC,Cons,Noise,31,4,1,0.601931699959096,1
14,Left,LMC,Cons,Noise,32,1,0,0.671324800001457,3
14,Left,LMC,Cons,Noise,33,3,0,0.841275900020264,2
14,Left,LMC,Cons,Noise,34,5,1,0.626209600013681,3
14,Left,LMC,Cons,Noise,35,5,1,0.645012299995869,1
14,Left,LMC,Cons,Noise,36,3,0,0.550168999994639,5
14,Left,LMC,Cons,Noise,37,1,0,0.590350800019223,1
14,Left,LMC,Cons,Noise,38,3,0,0.710801600012928,1
14,Left,LMC,Cons,Noise,39,4,1,0.843188599974383,3
14,Left,LMC,Cons,Noise,40,3,0,0.657911000016611,5
14,Left,LMC,Cons,Noise,41,5,0,0.612420000019483,5
14,Left,LMC,Cons,Noise,42,1,0,0.660329699981958,3
14,Left,LMC,Cons,Noise,43,4,1,0.591953199997079,1
14,Left,LMC,Cons,Noise,44,3,1,0.697870799980592,1
14,Left,LMC,Cons,Noise,45,1,0,0.61089049995644,3
14,Left,LMC,Cons,Noise,46,4,1,0.764823000004981,3
14,Left,LMC,Cons,Noise,47,4,1,0.787327400001232,4
14,Left,LMC,Cons,Noise,48,5,1,0.586937999993097,3
14,Left,LMC,Cons,Noise,49,1,0,0.61867809999967,4
14,Left,LMC,Cons,Noise,50,2,0,0.755704300012439,3
14,Left,LMC,Cons,Noise,51,3,1,0.516521200013813,2
14,Left,LMC,Cons,Noise,52,3,1,0.666648600017652,3
14,Left,LMC,Cons,Noise,53,1,0,0.602106900012586,1
14,Left,LMC,Cons,Noise,54,2,0,0.824531799997203,3
14,Left,LMC,Cons,Noise,55,5,1,0.595212000014726,1
14,Left,LMC,Cons,Noise,56,4,1,0.698415100050624,5
14,Left,LMC,Cons,Noise,57,1,0,0.62169920001179,5
14,Left,LMC,Cons,Noise,58,3,0,0.877010800002608,1
14,Left,LMC,Cons,Noise,59,3,0,0.560417700035032,2
14,Left,LMC,Cons,Noise,60,2,0,0.703361199994106,5
14,Left,LMC,Cons,Noise,61,1,0,0.710320200014394,2
14,Left,LMC,Cons,Noise,62,4,1,0.55710989999352,3
14,Left,LMC,Cons,Noise,63,3,1,0.592700399982277,3
14,Left,LMC,Cons,Noise,64,5,1,0.755376799963415,2
14,Left,LMC,Cons,Noise,65,3,1,0.56630349997431,3
14,Left,LMC,Cons,Noise,66,2,0,0.602671100001317,2
14,Left,LMC,Cons,Noise,67,3,1,0.652071300020907,4
14,Left,LMC,Cons,Noise,68,4,1,0.702297699986957,4
14,Left,LMC,Cons,Noise,69,2,0,0.576420600002166,4
14,Left,LMC,Cons,Noise,70,3,1,0.931856000039261,5
14,Left,LMC,Cons,Noise,71,5,1,0.970476999995299,4
14,Left,LMC,Cons,Noise,72,2,0,0.659598700003698,1
14,Left,LMC,Cons,Noise,73,2,0,0.838445300003514,4
14,Left,LMC,Cons,Noise,74,4,1,0.702976899978239,2
14,Left,LMC,Cons,Noise,75,2,0,0.712748799996916,2
14,Left,LMC,Cons,Noise,76,5,1,0.707016599946655,3
14,Left,LMC,Cons,Noise,77,3,0,0.642526599986013,4
14,Left,LMC,Cons,Noise,78,4,1,0.782228500000201,2
14,Left,TMC,Tone,Clear,1,2,0,1.01867199999106,2
14,Left,TMC,Tone,Clear,2,1,1,1.59120719999191,5
14,Left,TMC,Tone,Clear,3,3,1,0.869234099998721,4
14,Left,TMC,Tone,Clear,4,1,0,0.682353399999556,2
14,Left,TMC,Tone,Clear,5,5,1,0.668739000000642,3
14,Left,TMC,Tone,Clear,6,2,1,1.04051999999501,3
14,Left,TMC,Tone,Clear,7,4,1,0.866477599993232,2
14,Left,TMC,Tone,Clear,8,2,0,0.727631999994628,1
14,Left,TMC,Tone,Clear,9,5,1,0.697692100002314,5
14,Left,TMC,Tone,Clear,10,4,1,0.776519199993345,2
14,Left,TMC,Tone,Clear,11,4,1,0.698987600000692,4
14,Left,TMC,Tone,Clear,12,2,1,0.932122600002913,5
14,Left,TMC,Tone,Clear,13,1,0,0.6885925999959,1
14,Left,TMC,Tone,Clear,14,4,1,0.792752599998494,5
14,Left,TMC,Tone,Clear,15,3,1,0.675755500007654,4
14,Left,TMC,Tone,Clear,16,3,1,0.809999699995387,2
14,Left,TMC,Tone,Clear,17,5,1,0.71845129999565,4
14,Left,TMC,Tone,Clear,18,1,0,0.757408399993437,3
14,Left,TMC,Tone,Clear,19,5,1,0.687483300003805,3
14,Left,TMC,Tone,Clear,20,3,1,0.756182700002682,5
14,Left,TMC,Tone,Clear,21,2,1,0.82130579999648,4
14,Left,TMC,Tone,Clear,22,3,1,0.68956280000566,5
14,Left,TMC,Tone,Clear,23,4,1,0.79845820000628,3
14,Left,TMC,Tone,Clear,24,5,1,0.713271500004339,1
14,Left,TMC,Tone,Clear,25,4,1,0.743080799991731,4
14,Left,TMC,Tone,Clear,26,4,1,0.707947000002605,1
14,Left,TMC,Tone,Clear,27,3,1,0.718814300009399,1
14,Left,TMC,Tone,Clear,28,3,1,0.766928199998802,3
14,Left,TMC,Tone,Clear,29,2,0,0.777463600010378,2
14,Left,TMC,Tone,Clear,30,3,1,0.704043099991395,2
14,Left,TMC,Tone,Clear,31,2,1,0.799105700003565,3
14,Left,TMC,Tone,Clear,32,1,1,0.876922499999637,4
14,Left,TMC,Tone,Clear,33,4,1,0.687477300001774,3
14,Left,TMC,Tone,Clear,34,3,1,0.684713399998145,3
14,Left,TMC,Tone,Clear,35,3,1,0.619374700007029,3
14,Left,TMC,Tone,Clear,36,3,1,0.757067099999404,1
14,Left,TMC,Tone,Clear,37,5,1,0.693751899991184,2
14,Left,TMC,Tone,Clear,38,2,1,1.17952200000582,4
14,Left,TMC,Tone,Clear,39,1,0,0.736471099997289,3
14,Left,TMC,Tone,Clear,40,3,1,0.714664600003744,1
14,Left,TMC,Tone,Clear,41,1,0,0.80382770000142,4
14,Left,TMC,Tone,Clear,42,4,1,0.696958100001211,4
14,Left,TMC,Tone,Clear,43,5,1,0.795488600007957,2
14,Left,TMC,Tone,Clear,44,3,1,0.6884665999969,2
14,Left,TMC,Tone,Clear,45,1,0,0.667378199999803,3
14,Left,TMC,Tone,Clear,46,3,1,0.748961800010875,5
14,Left,TMC,Tone,Clear,47,3,1,0.793682700008503,3
14,Left,TMC,Tone,Clear,48,3,1,0.66364730001078,2
14,Left,TMC,Tone,Clear,49,4,1,0.736352700012503,3
14,Left,TMC,Tone,Clear,50,2,0,0.733905900007812,2
14,Left,TMC,Tone,Clear,51,4,1,0.784371300003841,1
14,Left,TMC,Tone,Clear,52,3,1,0.632954699991387,4
14,Left,TMC,Tone,Clear,53,4,1,0.660311200001161,2
14,Left,TMC,Tone,Clear,54,2,0,0.609105499999714,1
14,Left,TMC,Tone,Clear,55,5,1,0.624422300010337,3
14,Left,TMC,Tone,Clear,56,4,1,0.661622199986596,3
14,Left,TMC,Tone,Clear,57,3,1,0.582634900012636,5
14,Left,TMC,Tone,Clear,58,5,1,0.631813200001488,3
14,Left,TMC,Tone,Clear,59,4,1,0.628206599998521,4
14,Left,TMC,Tone,Clear,60,5,1,0.613125200005015,5
14,Left,TMC,Tone,Clear,61,4,1,0.597795499998028,5
14,Left,TMC,Tone,Clear,62,2,0,0.715454699995462,4
14,Left,TMC,Tone,Clear,63,4,1,0.834127200010698,2
14,Left,TMC,Tone,Clear,64,3,1,0.709513299996615,1
14,Left,TMC,Tone,Clear,65,1,0,0.666558299999451,5
14,Left,TMC,Tone,Clear,66,1,0,0.677513999995426,3
14,Left,TMC,Tone,Clear,67,1,0,0.650037099985639,1
14,Left,TMC,Tone,Clear,68,3,1,0.658534000001964,3
14,Left,TMC,Tone,Clear,69,3,1,0.670383099990431,4
14,Left,TMC,Tone,Clear,70,2,0,0.761366499995347,2
14,Left,TMC,Tone,Clear,71,2,1,0.808772399992449,5
14,Left,TMC,Tone,Clear,72,2,1,0.813906299998052,3
14,Left,TMC,Tone,Clear,73,2,0,1.03476110000338,3
14,Left,TMC,Tone,Clear,74,5,1,0.687928200000897,4
14,Left,TMC,Tone,Clear,75,2,0,0.696050600003218,4
14,Left,TMC,Tone,Clear,76,3,1,0.673040099994978,3
14,Left,TMC,Tone,Clear,77,5,1,0.709771999987424,1
14,Left,TMC,Tone,Clear,78,1,0,0.656934800004819,2
14,Left,TMC,Cons,Clear,1,4,1,0.746186899996246,4
14,Left,TMC,Cons,Clear,2,2,0,0.679053800005931,4
14,Left,TMC,Cons,Clear,3,3,1,0.661914299998898,4
14,Left,TMC,Cons,Clear,4,4,1,0.608818699998665,3
14,Left,TMC,Cons,Clear,5,5,1,0.56758250000712,3
14,Left,TMC,Cons,Clear,6,5,1,0.850082899996778,1
14,Left,TMC,Cons,Clear,7,5,1,0.677032599996892,2
14,Left,TMC,Cons,Clear,8,4,1,0.666135800012853,5
14,Left,TMC,Cons,Clear,9,3,1,0.725576099997852,1
14,Left,TMC,Cons,Clear,10,1,0,0.603781300000264,5
14,Left,TMC,Cons,Clear,11,2,0,0.627132099994924,4
14,Left,TMC,Cons,Clear,12,3,1,0.660093000013148,5
14,Left,TMC,Cons,Clear,13,5,1,0.717933099993388,4
14,Left,TMC,Cons,Clear,14,3,1,0.682881100001396,4
14,Left,TMC,Cons,Clear,15,3,1,0.700416500010761,2
14,Left,TMC,Cons,Clear,16,3,0,0.697299699997529,3
14,Left,TMC,Cons,Clear,17,2,1,0.72975420000148,2
14,Left,TMC,Cons,Clear,18,4,1,0.646719700001995,1
14,Left,TMC,Cons,Clear,19,3,1,0.853701900006854,3
14,Left,TMC,Cons,Clear,20,2,0,0.671721199993044,5
14,Left,TMC,Cons,Clear,21,3,1,0.633457399992039,2
14,Left,TMC,Cons,Clear,22,2,0,0.690892899991013,1
14,Left,TMC,Cons,Clear,23,1,0,0.704557299992302,3
14,Left,TMC,Cons,Clear,24,1,0,0.651743599999463,1
14,Left,TMC,Cons,Clear,25,1,0,0.58541790000163,4
