,subj_idx,group_idx,turn_type,task_type,snr_type,trial_num,step_att,response,rt,step_unatnd
156,55,Larynx,Left iTBS,Cons,Clear,1,2,1,1.00177219999023,1
157,55,Larynx,Left iTBS,Cons,Clear,2,3,1,0.6258949000039139,1
158,55,Larynx,Left iTBS,Cons,Clear,3,5,1,0.526781799970195,1
159,55,Larynx,Left iTBS,Cons,Clear,4,5,1,0.489346000016667,1
160,55,Larynx,Left iTBS,Cons,Clear,5,2,1,0.5062305000028571,1
161,55,Larynx,Left iTBS,Cons,Clear,6,4,1,0.519621600047685,1
162,55,Larynx,Left iTBS,Cons,Clear,7,1,0,0.44241920002969,1
163,55,Larynx,Left iTBS,Cons,Clear,8,2,0,0.5972835000138729,1
164,55,Larynx,Left iTBS,Cons,Clear,9,3,1,0.5174786000279711,1
165,55,Larynx,Left iTBS,Cons,Clear,10,3,1,0.506631900032517,1
166,55,Larynx,Left iTBS,Cons,Clear,11,1,0,0.473269900016021,1
167,55,Larynx,Left iTBS,Cons,Clear,12,4,1,0.438478299998678,1
168,55,Larynx,Left iTBS,Cons,Clear,13,3,1,0.4919520999537779,1
169,55,Larynx,Left iTBS,Cons,Clear,14,3,1,0.5424722000025209,1
170,55,Larynx,Left iTBS,Cons,Clear,15,1,0,0.49332690000301205,1
171,55,Larynx,Left iTBS,Cons,Clear,16,2,1,0.7167426000232808,1
172,55,Larynx,Left iTBS,Cons,Clear,17,3,1,0.632411799975671,1
173,55,Larynx,Left iTBS,Cons,Clear,18,5,1,0.4955049999989571,1
174,55,Larynx,Left iTBS,Cons,Clear,19,5,1,0.5220308999996629,1
175,55,Larynx,Left iTBS,Cons,Clear,20,3,1,0.6365029999869879,1
176,55,Larynx,Left iTBS,Cons,Clear,21,4,1,0.5070873000076971,1
177,55,Larynx,Left iTBS,Cons,Clear,22,1,0,0.514135500008706,1
178,55,Larynx,Left iTBS,Cons,Clear,23,3,1,0.710275000019465,1
179,55,Larynx,Left iTBS,Cons,Clear,24,5,1,0.662544400023762,1
180,55,Larynx,Left iTBS,Cons,Clear,25,2,0,0.712718900002074,1
181,55,Larynx,Left iTBS,Cons,Clear,26,3,1,0.592198500002269,1
182,55,Larynx,Left iTBS,Cons,Clear,27,4,1,0.5770058000343851,1
183,55,Larynx,Left iTBS,Cons,Clear,28,2,0,0.763030599977355,1
184,55,Larynx,Left iTBS,Cons,Clear,29,4,1,0.60427960002562,1
185,55,Larynx,Left iTBS,Cons,Clear,30,4,1,1.14238209999166,1
186,55,Larynx,Left iTBS,Cons,Clear,31,3,1,0.6233853999874549,1
187,55,Larynx,Left iTBS,Cons,Clear,32,4,1,0.590135099948384,1
188,55,Larynx,Left iTBS,Cons,Clear,33,5,1,1.28559240000322,1
189,55,Larynx,Left iTBS,Cons,Clear,34,1,0,0.60524710000027,1
190,55,Larynx,Left iTBS,Cons,Clear,35,4,1,0.6420143999857829,1
191,55,Larynx,Left iTBS,Cons,Clear,36,2,0,0.6350050999899389,1
192,55,Larynx,Left iTBS,Cons,Clear,37,2,0,1.1046757000149199,1
193,55,Larynx,Left iTBS,Cons,Clear,38,3,1,0.8287166999652981,1
194,55,Larynx,Left iTBS,Cons,Clear,39,1,0,0.519450199964922,1
195,55,Larynx,Left iTBS,Cons,Clear,40,3,1,0.479684800026007,1
196,55,Larynx,Left iTBS,Cons,Clear,41,3,1,0.820826400013175,1
197,55,Larynx,Left iTBS,Cons,Clear,42,5,1,0.5292593000340279,1
198,55,Larynx,Left iTBS,Cons,Clear,43,1,0,0.560315200011246,1
199,55,Larynx,Left iTBS,Cons,Clear,44,2,1,0.515540199994575,1
200,55,Larynx,Left iTBS,Cons,Clear,45,3,1,0.665639100014232,1
201,55,Larynx,Left iTBS,Cons,Clear,46,2,0,0.547293099982198,1
202,55,Larynx,Left iTBS,Cons,Clear,47,2,1,1.17537150002318,1
203,55,Larynx,Left iTBS,Cons,Clear,48,5,1,0.8400000000256109,1
204,55,Larynx,Left iTBS,Cons,Clear,49,4,1,0.7187127999495709,1
205,55,Larynx,Left iTBS,Cons,Clear,50,5,1,0.8141307999612759,1
206,55,Larynx,Left iTBS,Cons,Clear,51,1,0,0.60305169998901,1
207,55,Larynx,Left iTBS,Cons,Clear,52,1,0,1.21145850000903,1
208,55,Larynx,Left iTBS,Cons,Clear,53,4,1,0.7163158000330441,1
209,55,Larynx,Left iTBS,Cons,Clear,54,5,1,0.5765289000119079,1
210,55,Larynx,Left iTBS,Cons,Clear,55,2,1,1.30938450002577,1
211,55,Larynx,Left iTBS,Cons,Clear,56,4,1,0.9551656999974508,1
212,55,Larynx,Left iTBS,Cons,Clear,57,4,1,0.580347599985544,1
213,55,Larynx,Left iTBS,Cons,Clear,58,3,1,2.3413588000112204,1
214,55,Larynx,Left iTBS,Cons,Clear,59,3,1,0.587143699987791,1
215,55,Larynx,Left iTBS,Cons,Clear,60,2,1,1.72878270002548,1
216,55,Larynx,Left iTBS,Cons,Clear,61,1,0,0.5276007999782449,1
217,55,Larynx,Left iTBS,Cons,Clear,62,4,1,0.600553299998865,1
218,55,Larynx,Left iTBS,Cons,Clear,63,3,1,0.600312699971255,1
219,55,Larynx,Left iTBS,Cons,Clear,64,3,1,0.680503499985207,1
220,55,Larynx,Left iTBS,Cons,Clear,65,3,1,1.02209590002894,1
221,55,Larynx,Left iTBS,Cons,Clear,66,1,0,0.6044125999906099,1
222,55,Larynx,Left iTBS,Cons,Clear,67,5,1,0.6363438999978829,1
223,55,Larynx,Left iTBS,Cons,Clear,68,2,0,0.882959000009578,1
224,55,Larynx,Left iTBS,Cons,Clear,69,4,1,0.5896580000407989,1
225,55,Larynx,Left iTBS,Cons,Clear,70,2,1,1.45201619999716,1
226,55,Larynx,Left iTBS,Cons,Clear,71,3,1,0.814046400017105,1
227,55,Larynx,Left iTBS,Cons,Clear,72,3,1,0.575749000010546,1
228,55,Larynx,Left iTBS,Cons,Clear,73,2,0,0.785412299970631,1
229,55,Larynx,Left iTBS,Cons,Clear,74,4,1,0.5001020000199791,1
230,55,Larynx,Left iTBS,Cons,Clear,75,3,1,0.487399699981324,1
231,55,Larynx,Left iTBS,Cons,Clear,76,5,1,0.6878387000178922,1
232,55,Larynx,Left iTBS,Cons,Clear,77,1,0,0.7761669000028629,1
233,55,Larynx,Left iTBS,Cons,Clear,78,4,1,0.618910700024571,1
234,55,Larynx,Left iTBS,Cons,Clear,79,5,1,0.812768000003416,1
235,55,Larynx,Left iTBS,Cons,Clear,80,3,1,0.649576099996921,1
236,55,Larynx,Left iTBS,Cons,Clear,81,3,1,0.518387200019788,1
237,55,Larynx,Left iTBS,Cons,Clear,82,4,1,0.515295899997,1
238,55,Larynx,Left iTBS,Cons,Clear,83,3,0,0.6971686000470071,1
239,55,Larynx,Left iTBS,Cons,Clear,84,4,1,1.8036177000030902,1
240,55,Larynx,Left iTBS,Cons,Clear,85,1,0,0.623904600040987,1
241,55,Larynx,Left iTBS,Cons,Clear,86,3,1,0.556094600004144,1
242,55,Larynx,Left iTBS,Cons,Clear,87,2,0,0.652640699991025,1
243,55,Larynx,Left iTBS,Cons,Clear,88,1,0,0.926714900007937,1
244,55,Larynx,Left iTBS,Cons,Clear,89,4,1,0.6283263000077571,1
245,55,Larynx,Left iTBS,Cons,Clear,90,3,1,0.6009560999809761,1
246,55,Larynx,Left iTBS,Cons,Clear,91,3,1,0.724956699996255,1
247,55,Larynx,Left iTBS,Cons,Clear,92,1,0,0.560150399978738,1
248,55,Larynx,Left iTBS,Cons,Clear,93,5,1,1.2568434000131699,1
249,55,Larynx,Left iTBS,Cons,Clear,94,2,0,0.8434820999973449,1
250,55,Larynx,Left iTBS,Cons,Clear,95,1,1,1.25404959998559,1
251,55,Larynx,Left iTBS,Cons,Clear,96,4,1,0.998463800002355,1
252,55,Larynx,Left iTBS,Cons,Clear,97,4,1,0.568327400018461,1
253,55,Larynx,Left iTBS,Cons,Clear,98,2,1,0.527479299984407,1
254,55,Larynx,Left iTBS,Cons,Clear,99,2,1,1.3794381999759902,1
255,55,Larynx,Left iTBS,Cons,Clear,100,4,1,0.660036200017203,1
256,55,Larynx,Left iTBS,Cons,Clear,101,3,1,0.525538399990182,1
257,55,Larynx,Left iTBS,Cons,Clear,102,2,0,0.6434963999781761,1
258,55,Larynx,Left iTBS,Cons,Clear,103,3,1,0.522939999995288,1
259,55,Larynx,Left iTBS,Cons,Clear,104,3,1,0.526735800027382,1
260,55,Larynx,Left iTBS,Cons,Clear,105,5,1,0.586108499963302,1
261,55,Larynx,Left iTBS,Cons,Clear,106,2,0,0.7970604000147429,1
262,55,Larynx,Left iTBS,Cons,Clear,107,2,0,0.67530900001293,1
263,55,Larynx,Left iTBS,Cons,Clear,108,4,0,1.06241940002656,1
264,55,Larynx,Left iTBS,Cons,Clear,109,5,1,0.9870051000034441,1
265,55,Larynx,Left iTBS,Cons,Clear,110,1,0,0.613461299974006,1
266,55,Larynx,Left iTBS,Cons,Clear,111,5,1,0.49489289999473796,1
267,55,Larynx,Left iTBS,Cons,Clear,112,1,0,0.49144650000380397,1
268,55,Larynx,Left iTBS,Cons,Clear,113,4,1,0.401684300042689,1
269,55,Larynx,Left iTBS,Cons,Clear,114,3,1,0.680037999991328,1
270,55,Larynx,Left iTBS,Cons,Clear,115,2,1,1.4032374999951598,1
271,55,Larynx,Left iTBS,Cons,Clear,116,3,1,0.6659789000405,1
272,55,Larynx,Left iTBS,Cons,Clear,117,5,1,0.7553761000162921,1
273,55,Larynx,Left iTBS,Cons,Clear,118,4,1,0.6027825000346639,1
274,55,Larynx,Left iTBS,Cons,Clear,119,5,1,0.6626869000028821,1
275,55,Larynx,Left iTBS,Cons,Clear,120,2,0,0.6497330000274809,1
276,55,Larynx,Left iTBS,Cons,Clear,121,3,0,1.5879663999658102,1
277,55,Larynx,Left iTBS,Cons,Clear,122,4,1,0.6710816000122579,1
278,55,Larynx,Left iTBS,Cons,Clear,123,4,1,0.8603460000013,1
279,55,Larynx,Left iTBS,Cons,Clear,124,2,0,0.7631549999932759,1
280,55,Larynx,Left iTBS,Cons,Clear,125,2,1,1.89169449999463,1
281,55,Larynx,Left iTBS,Cons,Clear,126,3,1,0.639044300012756,1
282,55,Larynx,Left iTBS,Cons,Clear,127,5,1,0.648293900012504,1
283,55,Larynx,Left iTBS,Cons,Clear,128,1,0,0.49716749996878207,1
284,55,Larynx,Left iTBS,Cons,Clear,129,4,1,0.503098200017121,1
285,55,Larynx,Left iTBS,Cons,Clear,130,3,1,1.8006851000245698,1
286,55,Larynx,Left iTBS,Cons,Clear,131,1,0,1.00184639997315,1
287,55,Larynx,Left iTBS,Cons,Clear,132,3,1,0.927428400027566,1
288,55,Larynx,Left iTBS,Cons,Clear,133,3,1,2.2934286999516202,1
289,55,Larynx,Left iTBS,Cons,Clear,134,1,0,0.620040900015738,1
290,55,Larynx,Left iTBS,Cons,Clear,135,2,1,2.54801460000454,1
291,55,Larynx,Left iTBS,Cons,Clear,136,5,1,0.706429000012577,1
292,55,Larynx,Left iTBS,Cons,Clear,137,5,1,0.598776600032579,1
293,55,Larynx,Left iTBS,Cons,Clear,138,4,1,0.6006467000115661,1
294,55,Larynx,Left iTBS,Cons,Clear,139,3,0,1.20836690004217,1
295,55,Larynx,Left iTBS,Cons,Clear,140,3,1,1.6178133999928799,1
296,55,Larynx,Left iTBS,Cons,Clear,141,5,1,0.651321600016672,1
297,55,Larynx,Left iTBS,Cons,Clear,142,4,1,0.525569699995685,1
298,55,Larynx,Left iTBS,Cons,Clear,143,3,1,0.48169549996964595,1
299,55,Larynx,Left iTBS,Cons,Clear,144,2,0,0.7166726000141349,1
300,55,Larynx,Left iTBS,Cons,Clear,145,4,1,1.76968179998221,1
301,55,Larynx,Left iTBS,Cons,Clear,146,1,0,0.5662513999850489,1
302,55,Larynx,Left iTBS,Cons,Clear,147,1,0,0.543631900043692,1
303,55,Larynx,Left iTBS,Cons,Clear,148,3,1,0.737774800043553,1
304,55,Larynx,Left iTBS,Cons,Clear,149,2,1,1.26222629996482,1
305,55,Larynx,Left iTBS,Cons,Clear,150,1,0,0.9834619999746791,1
306,55,Larynx,Left iTBS,Cons,Clear,151,5,1,0.554394499980845,1
307,55,Larynx,Left iTBS,Cons,Clear,152,2,0,0.966745099984109,1
308,55,Larynx,Left iTBS,Cons,Clear,153,4,1,0.7373972000204959,1
309,55,Larynx,Left iTBS,Cons,Clear,154,3,1,0.671319300017785,1
310,55,Larynx,Left iTBS,Cons,Clear,155,3,1,0.692585800017696,1
311,55,Larynx,Left iTBS,Cons,Clear,156,2,0,1.19539470004383,1
2652,55,Larynx,Sham,Cons,Clear,1,4,1,0.934042100096121,1
2653,55,Larynx,Sham,Cons,Clear,2,3,0,0.710423299926333,1
2654,55,Larynx,Sham,Cons,Clear,3,4,1,0.705889699980617,1
2655,55,Larynx,Sham,Cons,Clear,4,5,1,0.540295299957506,1
2656,55,Larynx,Sham,Cons,Clear,5,2,0,0.9196360999485479,1
2657,55,Larynx,Sham,Cons,Clear,6,1,0,0.6825928000034761,1
2658,55,Larynx,Sham,Cons,Clear,7,2,1,0.578115500044078,1
2659,55,Larynx,Sham,Cons,Clear,8,4,1,0.49368079996202097,1
2660,55,Larynx,Sham,Cons,Clear,9,1,0,0.50125760002993,1
2661,55,Larynx,Sham,Cons,Clear,10,3,1,0.46261219994630703,1
2662,55,Larynx,Sham,Cons,Clear,11,4,1,0.44901630003005294,1
2663,55,Larynx,Sham,Cons,Clear,12,1,0,0.457939499989152,1
2664,55,Larynx,Sham,Cons,Clear,13,5,1,0.412294800044037,1
2665,55,Larynx,Sham,Cons,Clear,14,3,1,0.412832199945115,1
2666,55,Larynx,Sham,Cons,Clear,15,3,1,0.400856700027362,1
2667,55,Larynx,Sham,Cons,Clear,16,5,1,0.488825099891983,1
2668,55,Larynx,Sham,Cons,Clear,17,2,0,1.04162819997873,1
2669,55,Larynx,Sham,Cons,Clear,18,2,1,0.473968900041655,1
2670,55,Larynx,Sham,Cons,Clear,19,3,1,0.37195810000412205,1
2671,55,Larynx,Sham,Cons,Clear,20,4,1,0.528839699923992,1
2672,55,Larynx,Sham,Cons,Clear,21,3,1,0.48345010005869,1
2673,55,Larynx,Sham,Cons,Clear,22,4,1,0.539515699958429,1
2674,55,Larynx,Sham,Cons,Clear,23,1,1,1.21700820000842,1
2675,55,Larynx,Sham,Cons,Clear,24,3,1,0.7850910000270229,1
2676,55,Larynx,Sham,Cons,Clear,25,2,0,0.8673005000455309,1
2677,55,Larynx,Sham,Cons,Clear,26,3,1,0.49269039998762304,1
2678,55,Larynx,Sham,Cons,Clear,27,4,1,0.529948699986562,1
2679,55,Larynx,Sham,Cons,Clear,28,5,1,0.5745814999099821,1
2680,55,Larynx,Sham,Cons,Clear,29,1,0,0.472347900038585,1
2681,55,Larynx,Sham,Cons,Clear,30,2,0,0.9732041000388559,1
2682,55,Larynx,Sham,Cons,Clear,31,3,1,0.434497099951841,1
2683,55,Larynx,Sham,Cons,Clear,32,4,1,0.521754699992016,1
2684,55,Larynx,Sham,Cons,Clear,33,5,1,0.55417929997202,1
2685,55,Larynx,Sham,Cons,Clear,34,3,1,0.5580500999931249,1
2686,55,Larynx,Sham,Cons,Clear,35,2,0,0.958747299970128,1
2687,55,Larynx,Sham,Cons,Clear,36,1,0,0.8038388999411841,1
2688,55,Larynx,Sham,Cons,Clear,37,2,1,0.752397899981588,1
2689,55,Larynx,Sham,Cons,Clear,38,3,1,0.696927699958906,1
2690,55,Larynx,Sham,Cons,Clear,39,5,1,0.638439400005154,1
2691,55,Larynx,Sham,Cons,Clear,40,3,0,0.665475399931893,1
2692,55,Larynx,Sham,Cons,Clear,41,1,0,0.804136399994604,1
2693,55,Larynx,Sham,Cons,Clear,42,1,0,0.8864494999870659,1
2694,55,Larynx,Sham,Cons,Clear,43,2,0,0.716498899972066,1
2695,55,Larynx,Sham,Cons,Clear,44,2,1,0.8734404999995601,1
2696,55,Larynx,Sham,Cons,Clear,45,2,1,1.56464120000601,1
2697,55,Larynx,Sham,Cons,Clear,46,3,1,1.4582583999726901,1
2698,55,Larynx,Sham,Cons,Clear,47,5,1,0.69781350006815,1
2699,55,Larynx,Sham,Cons,Clear,48,5,1,0.7539287999970842,1
2700,55,Larynx,Sham,Cons,Clear,49,1,0,0.556172900018282,1
2701,55,Larynx,Sham,Cons,Clear,50,1,0,0.539429800002836,1
2702,55,Larynx,Sham,Cons,Clear,51,3,1,0.5126088999677451,1
2703,55,Larynx,Sham,Cons,Clear,52,4,1,0.5100682999473071,1
2704,55,Larynx,Sham,Cons,Clear,53,4,1,0.57039539993275,1
2705,55,Larynx,Sham,Cons,Clear,54,5,1,0.5973072999622671,1
2706,55,Larynx,Sham,Cons,Clear,55,5,1,0.543352500069886,1
2707,55,Larynx,Sham,Cons,Clear,56,3,1,1.17996950005181,1
2708,55,Larynx,Sham,Cons,Clear,57,4,1,0.667081900057383,1
2709,55,Larynx,Sham,Cons,Clear,58,3,1,0.553447399986908,1
2710,55,Larynx,Sham,Cons,Clear,59,2,0,0.563202399993315,1
2711,55,Larynx,Sham,Cons,Clear,60,2,0,0.6657547999639061,1
2712,55,Larynx,Sham,Cons,Clear,61,3,1,0.5075607999460771,1
2713,55,Larynx,Sham,Cons,Clear,62,4,1,0.530659900046885,1
2714,55,Larynx,Sham,Cons,Clear,63,3,1,0.875839100102894,1
2715,55,Larynx,Sham,Cons,Clear,64,4,1,0.598167099989951,1
2716,55,Larynx,Sham,Cons,Clear,65,2,0,1.03669149999041,1
2717,55,Larynx,Sham,Cons,Clear,66,3,0,1.1199778000591298,1
2718,55,Larynx,Sham,Cons,Clear,67,3,1,1.98254430002999,1
2719,55,Larynx,Sham,Cons,Clear,68,5,1,0.583603100036271,1
2720,55,Larynx,Sham,Cons,Clear,69,4,1,0.612070000031963,1
2721,55,Larynx,Sham,Cons,Clear,70,5,1,0.518571099964902,1
2722,55,Larynx,Sham,Cons,Clear,71,2,0,0.589270600001328,1
2723,55,Larynx,Sham,Cons,Clear,72,4,1,0.447820200002752,1
2724,55,Larynx,Sham,Cons,Clear,73,2,0,0.8609258999349549,1
2725,55,Larynx,Sham,Cons,Clear,74,4,1,0.75710839999374,1
2726,55,Larynx,Sham,Cons,Clear,75,1,0,0.587426299927756,1
2727,55,Larynx,Sham,Cons,Clear,76,3,1,0.6245000999188051,1
2728,55,Larynx,Sham,Cons,Clear,77,1,0,0.5144118999596691,1
2729,55,Larynx,Sham,Cons,Clear,78,3,1,0.586247499915771,1
2730,55,Larynx,Sham,Cons,Clear,79,5,1,0.634433800005354,1
2731,55,Larynx,Sham,Cons,Clear,80,2,1,0.983725999947637,1
2732,55,Larynx,Sham,Cons,Clear,81,4,1,0.565881899907254,1
2733,55,Larynx,Sham,Cons,Clear,82,3,1,0.6869611999718471,1
2734,55,Larynx,Sham,Cons,Clear,83,5,1,0.9323210000293329,1
2735,55,Larynx,Sham,Cons,Clear,84,1,0,1.01071979990229,1
2736,55,Larynx,Sham,Cons,Clear,85,4,1,0.6462203999981279,1
2737,55,Larynx,Sham,Cons,Clear,86,5,1,0.616794099914841,1
2738,55,Larynx,Sham,Cons,Clear,87,2,0,0.617599799996242,1
2739,55,Larynx,Sham,Cons,Clear,88,5,1,0.517924600047991,1
2740,55,Larynx,Sham,Cons,Clear,89,5,1,1.09142780001275,1
2741,55,Larynx,Sham,Cons,Clear,90,3,1,0.998555000056513,1
2742,55,Larynx,Sham,Cons,Clear,91,4,1,0.720264800009318,1
2743,55,Larynx,Sham,Cons,Clear,92,3,1,0.6469617999391629,1
2744,55,Larynx,Sham,Cons,Clear,93,3,1,0.596635499969125,1
2745,55,Larynx,Sham,Cons,Clear,94,4,1,2.31250889995135,1
2746,55,Larynx,Sham,Cons,Clear,95,1,0,0.549397900002077,1
2747,55,Larynx,Sham,Cons,Clear,96,1,0,0.8234475000062959,1
2748,55,Larynx,Sham,Cons,Clear,97,4,1,1.1256134000141202,1
2749,55,Larynx,Sham,Cons,Clear,98,2,0,1.0388919999823,1
2750,55,Larynx,Sham,Cons,Clear,99,2,1,0.991586300078779,1
2751,55,Larynx,Sham,Cons,Clear,100,3,1,0.832184799946845,1
2752,55,Larynx,Sham,Cons,Clear,101,3,1,0.674170100013725,1
2753,55,Larynx,Sham,Cons,Clear,102,1,0,0.6098851999267939,1
2754,55,Larynx,Sham,Cons,Clear,103,4,1,0.682268599979579,1
2755,55,Larynx,Sham,Cons,Clear,104,3,1,1.28205010003876,1
2756,55,Larynx,Sham,Cons,Clear,105,2,0,1.01399539993145,1
2757,55,Larynx,Sham,Cons,Clear,106,2,1,1.19507280003745,1
2758,55,Larynx,Sham,Cons,Clear,107,4,1,0.750296999933198,1
2759,55,Larynx,Sham,Cons,Clear,108,3,1,0.673163900035433,1
2760,55,Larynx,Sham,Cons,Clear,109,4,1,0.8813494999194521,1
2761,55,Larynx,Sham,Cons,Clear,110,1,0,0.596333499997854,1
2762,55,Larynx,Sham,Cons,Clear,111,1,0,0.537975999992341,1
2763,55,Larynx,Sham,Cons,Clear,112,2,0,0.63407729996834,1
2764,55,Larynx,Sham,Cons,Clear,113,2,1,1.0127371998969499,1
2765,55,Larynx,Sham,Cons,Clear,114,3,1,1.0349351000040798,1
2766,55,Larynx,Sham,Cons,Clear,115,3,1,0.7054344998905441,1
2767,55,Larynx,Sham,Cons,Clear,116,5,1,0.68861630000174,1
2768,55,Larynx,Sham,Cons,Clear,117,3,1,0.748984400066547,1
2769,55,Larynx,Sham,Cons,Clear,118,5,1,0.6910728000802919,1
2770,55,Larynx,Sham,Cons,Clear,119,3,1,0.630544800078496,1
2771,55,Larynx,Sham,Cons,Clear,120,1,0,0.566733799991198,1
2772,55,Larynx,Sham,Cons,Clear,121,2,0,0.7773271000478421,1
2773,55,Larynx,Sham,Cons,Clear,122,3,1,1.02154910005629,1
2774,55,Larynx,Sham,Cons,Clear,123,4,1,0.657522000023164,1
2775,55,Larynx,Sham,Cons,Clear,124,3,1,0.688550400082022,1
2776,55,Larynx,Sham,Cons,Clear,125,4,1,0.532777699991129,1
2777,55,Larynx,Sham,Cons,Clear,126,3,1,0.7433516000164669,1
2778,55,Larynx,Sham,Cons,Clear,127,3,1,0.631413799943402,1
2779,55,Larynx,Sham,Cons,Clear,128,5,1,0.805384799954481,1
2780,55,Larynx,Sham,Cons,Clear,129,2,0,0.585150099941529,1
2781,55,Larynx,Sham,Cons,Clear,130,4,1,0.6267780999187379,1
2782,55,Larynx,Sham,Cons,Clear,131,3,1,0.8556218999437991,1
2783,55,Larynx,Sham,Cons,Clear,132,1,0,0.79002020007465,1
2784,55,Larynx,Sham,Cons,Clear,133,2,0,0.8613106000702829,1
2785,55,Larynx,Sham,Cons,Clear,134,1,0,0.709599800058641,1
2786,55,Larynx,Sham,Cons,Clear,135,4,1,0.559192699962296,1
2787,55,Larynx,Sham,Cons,Clear,136,2,0,0.7048461000667879,1
2788,55,Larynx,Sham,Cons,Clear,137,2,0,1.0829685999779002,1
2789,55,Larynx,Sham,Cons,Clear,138,1,0,0.707380799925886,1
2790,55,Larynx,Sham,Cons,Clear,139,4,1,1.01547589991242,1
2791,55,Larynx,Sham,Cons,Clear,140,3,0,1.4180633999640102,1
2792,55,Larynx,Sham,Cons,Clear,141,5,1,1.19451719999779,1
2793,55,Larynx,Sham,Cons,Clear,142,2,0,0.957568400073797,1
2794,55,Larynx,Sham,Cons,Clear,143,3,1,0.7927589000901211,1
2795,55,Larynx,Sham,Cons,Clear,144,3,1,0.829562400002033,1
2796,55,Larynx,Sham,Cons,Clear,145,5,1,0.7888248000526801,1
2797,55,Larynx,Sham,Cons,Clear,146,1,0,0.9875916000455619,1
2798,55,Larynx,Sham,Cons,Clear,147,5,1,1.0835322999628298,1
2799,55,Larynx,Sham,Cons,Clear,148,4,1,0.6853675000602379,1
2800,55,Larynx,Sham,Cons,Clear,149,3,1,0.6188969999784599,1
2801,55,Larynx,Sham,Cons,Clear,150,4,1,0.862097200006247,1
2802,55,Larynx,Sham,Cons,Clear,151,2,0,0.5490051000379029,1
2803,55,Larynx,Sham,Cons,Clear,152,1,0,0.534602500032634,1
2804,55,Larynx,Sham,Cons,Clear,153,3,1,3.14731749997009,1
2805,55,Larynx,Sham,Cons,Clear,154,2,0,0.5928573999553921,1
2806,55,Larynx,Sham,Cons,Clear,155,4,1,0.627199400099926,1
2807,55,Larynx,Sham,Cons,Clear,156,5,1,0.500713000074029,1
3276,104,Larynx,Left iTBS,Cons,Clear,1,3,1,0.8850038999225941,1
3277,104,Larynx,Left iTBS,Cons,Clear,2,1,0,0.643297300091945,1
3278,104,Larynx,Left iTBS,Cons,Clear,3,1,0,0.713911600061692,1
3279,104,Larynx,Left iTBS,Cons,Clear,4,2,1,0.6538272999459879,1
3280,104,Larynx,Left iTBS,Cons,Clear,5,2,1,0.6373264999128879,1
3281,104,Larynx,Left iTBS,Cons,Clear,6,2,1,0.614430300076492,1
3282,104,Larynx,Left iTBS,Cons,Clear,7,3,1,0.521663499996066,1
3283,104,Larynx,Left iTBS,Cons,Clear,8,5,1,0.6854497999884189,1
3284,104,Larynx,Left iTBS,Cons,Clear,9,5,1,0.5460878000594679,1
3285,104,Larynx,Left iTBS,Cons,Clear,10,1,0,0.761305800057016,1
3286,104,Larynx,Left iTBS,Cons,Clear,11,1,0,0.505126300035045,1
3287,104,Larynx,Left iTBS,Cons,Clear,12,3,1,0.5538944000145419,1
3288,104,Larynx,Left iTBS,Cons,Clear,13,4,1,0.5765836000209671,1
3289,104,Larynx,Left iTBS,Cons,Clear,14,4,1,0.619989100028761,1
3290,104,Larynx,Left iTBS,Cons,Clear,15,5,1,0.5834784000180661,1
3291,104,Larynx,Left iTBS,Cons,Clear,16,5,1,0.45493120001628995,1
3292,104,Larynx,Left iTBS,Cons,Clear,17,3,1,0.45577080000657594,1
3293,104,Larynx,Left iTBS,Cons,Clear,18,4,1,0.39043600007426,1
3294,104,Larynx,Left iTBS,Cons,Clear,19,3,1,0.44217220006976293,1
3295,104,Larynx,Left iTBS,Cons,Clear,20,2,1,0.422030200017616,1
3296,104,Larynx,Left iTBS,Cons,Clear,21,2,1,0.5104722999967629,1
3297,104,Larynx,Left iTBS,Cons,Clear,22,3,1,0.522796700010076,1
3298,104,Larynx,Left iTBS,Cons,Clear,23,4,1,0.45918889995664397,1
3299,104,Larynx,Left iTBS,Cons,Clear,24,3,1,0.5078429999994111,1
3300,104,Larynx,Left iTBS,Cons,Clear,25,4,1,0.541910800035112,1
3301,104,Larynx,Left iTBS,Cons,Clear,26,2,1,0.446877999929711,1
3302,104,Larynx,Left iTBS,Cons,Clear,27,3,1,0.518467599991709,1
3303,104,Larynx,Left iTBS,Cons,Clear,28,3,1,0.520404300070368,1
3304,104,Larynx,Left iTBS,Cons,Clear,29,5,1,0.5375018999911839,1
3305,104,Larynx,Left iTBS,Cons,Clear,30,4,1,0.579719699919224,1
3306,104,Larynx,Left iTBS,Cons,Clear,31,5,1,0.5676099000265821,1
3307,104,Larynx,Left iTBS,Cons,Clear,32,2,0,0.588478800025769,1
3308,104,Larynx,Left iTBS,Cons,Clear,33,4,1,0.530797700048424,1
3309,104,Larynx,Left iTBS,Cons,Clear,34,2,0,0.585565699962899,1
3310,104,Larynx,Left iTBS,Cons,Clear,35,4,1,0.4819418999832121,1
3311,104,Larynx,Left iTBS,Cons,Clear,36,1,0,0.5158161999424921,1
3312,104,Larynx,Left iTBS,Cons,Clear,37,3,1,0.474080600077286,1
3313,104,Larynx,Left iTBS,Cons,Clear,38,1,0,0.46442930004559496,1
3314,104,Larynx,Left iTBS,Cons,Clear,39,3,1,0.48342240008059895,1
3315,104,Larynx,Left iTBS,Cons,Clear,40,5,1,0.550229599932209,1
3316,104,Larynx,Left iTBS,Cons,Clear,41,2,0,0.6870829000836239,1
3317,104,Larynx,Left iTBS,Cons,Clear,42,4,1,0.48767800000496203,1
3318,104,Larynx,Left iTBS,Cons,Clear,43,3,1,0.5193579000188039,1
3319,104,Larynx,Left iTBS,Cons,Clear,44,5,1,0.544194099958986,1
3320,104,Larynx,Left iTBS,Cons,Clear,45,1,0,0.479587899986655,1
3321,104,Larynx,Left iTBS,Cons,Clear,46,4,1,0.5831391999963671,1
3322,104,Larynx,Left iTBS,Cons,Clear,47,5,1,0.49560230004135497,1
3323,104,Larynx,Left iTBS,Cons,Clear,48,2,0,0.5886340000433851,1
3324,104,Larynx,Left iTBS,Cons,Clear,49,5,1,0.500376599957235,1
3325,104,Larynx,Left iTBS,Cons,Clear,50,5,1,0.547117899986915,1
3326,104,Larynx,Left iTBS,Cons,Clear,51,3,1,0.439257699996233,1
3327,104,Larynx,Left iTBS,Cons,Clear,52,4,1,0.501527499989606,1
3328,104,Larynx,Left iTBS,Cons,Clear,53,3,1,0.526525299996138,1
3329,104,Larynx,Left iTBS,Cons,Clear,54,3,1,0.575401699985377,1
3330,104,Larynx,Left iTBS,Cons,Clear,55,4,1,0.565855499939062,1
3331,104,Larynx,Left iTBS,Cons,Clear,56,1,0,0.5927722000051291,1
3332,104,Larynx,Left iTBS,Cons,Clear,57,1,0,0.553656099946238,1
3333,104,Larynx,Left iTBS,Cons,Clear,58,4,1,0.522303399979137,1
3334,104,Larynx,Left iTBS,Cons,Clear,59,2,0,0.611554899951443,1
3335,104,Larynx,Left iTBS,Cons,Clear,60,2,0,0.649872199981473,1
3336,104,Larynx,Left iTBS,Cons,Clear,61,3,1,0.525151200010441,1
3337,104,Larynx,Left iTBS,Cons,Clear,62,3,1,0.7212812999496241,1
3338,104,Larynx,Left iTBS,Cons,Clear,63,1,0,0.6099382999818771,1
3339,104,Larynx,Left iTBS,Cons,Clear,64,4,1,0.613195599988103,1
3340,104,Larynx,Left iTBS,Cons,Clear,65,3,1,0.683193900040351,1
3341,104,Larynx,Left iTBS,Cons,Clear,66,2,0,0.519272800069302,1
3342,104,Larynx,Left iTBS,Cons,Clear,67,2,0,0.6936215000459921,1
3343,104,Larynx,Left iTBS,Cons,Clear,68,4,1,0.510084999958053,1
3344,104,Larynx,Left iTBS,Cons,Clear,69,3,1,1.00095250003506,1
3345,104,Larynx,Left iTBS,Cons,Clear,70,4,1,0.636441700044088,1
3346,104,Larynx,Left iTBS,Cons,Clear,71,1,0,0.530891799950041,1
3347,104,Larynx,Left iTBS,Cons,Clear,72,1,0,0.6026876000687479,1
3348,104,Larynx,Left iTBS,Cons,Clear,73,2,1,0.645573999965563,1
3349,104,Larynx,Left iTBS,Cons,Clear,74,2,1,0.826956399949268,1
3350,104,Larynx,Left iTBS,Cons,Clear,75,3,1,0.544815300032496,1
3351,104,Larynx,Left iTBS,Cons,Clear,76,3,1,0.6338107999181372,1
3352,104,Larynx,Left iTBS,Cons,Clear,77,5,1,0.4978944000322371,1
3353,104,Larynx,Left iTBS,Cons,Clear,78,3,1,0.577667400008067,1
3354,104,Larynx,Left iTBS,Cons,Clear,79,5,1,0.468548300093971,1
3355,104,Larynx,Left iTBS,Cons,Clear,80,3,0,0.7599374999990691,1
3356,104,Larynx,Left iTBS,Cons,Clear,81,1,0,0.587337200064212,1
3357,104,Larynx,Left iTBS,Cons,Clear,82,2,1,0.608231700025499,1
3358,104,Larynx,Left iTBS,Cons,Clear,83,3,1,0.666621700045653,1
3359,104,Larynx,Left iTBS,Cons,Clear,84,4,1,0.684542499948293,1
3360,104,Larynx,Left iTBS,Cons,Clear,85,3,1,0.494137800065801,1
3361,104,Larynx,Left iTBS,Cons,Clear,86,4,1,0.499576500034891,1
3362,104,Larynx,Left iTBS,Cons,Clear,87,3,1,0.509798899991438,1
3363,104,Larynx,Left iTBS,Cons,Clear,88,3,1,0.534258499974385,1
3364,104,Larynx,Left iTBS,Cons,Clear,89,5,1,0.517059700097889,1
3365,104,Larynx,Left iTBS,Cons,Clear,90,2,0,0.627604000037536,1
3366,104,Larynx,Left iTBS,Cons,Clear,91,4,1,0.5595161999808621,1
3367,104,Larynx,Left iTBS,Cons,Clear,92,3,1,0.520292899920605,1
3368,104,Larynx,Left iTBS,Cons,Clear,93,1,0,0.611330299987458,1
3369,104,Larynx,Left iTBS,Cons,Clear,94,2,0,0.772834399947897,1
3370,104,Larynx,Left iTBS,Cons,Clear,95,1,0,0.596764800022356,1
3371,104,Larynx,Left iTBS,Cons,Clear,96,4,1,0.597283200011589,1
3372,104,Larynx,Left iTBS,Cons,Clear,97,2,0,0.65118759998586,1
3373,104,Larynx,Left iTBS,Cons,Clear,98,2,0,0.618609600001946,1
3374,104,Larynx,Left iTBS,Cons,Clear,99,1,0,0.695863600005396,1
3375,104,Larynx,Left iTBS,Cons,Clear,100,4,1,0.599500100011937,1
3376,104,Larynx,Left iTBS,Cons,Clear,101,3,1,0.662134399986826,1
3377,104,Larynx,Left iTBS,Cons,Clear,102,5,1,0.513913300004788,1
3378,104,Larynx,Left iTBS,Cons,Clear,103,2,0,0.5163663000566879,1
3379,104,Larynx,Left iTBS,Cons,Clear,104,3,1,0.6587672000750899,1
3380,104,Larynx,Left iTBS,Cons,Clear,105,3,1,0.62526570004411,1
3381,104,Larynx,Left iTBS,Cons,Clear,106,5,1,0.542145299958065,1
3382,104,Larynx,Left iTBS,Cons,Clear,107,1,0,0.5953642000677061,1
3383,104,Larynx,Left iTBS,Cons,Clear,108,5,1,0.5283184000290929,1
3384,104,Larynx,Left iTBS,Cons,Clear,109,4,1,0.8436060999520122,1
3385,104,Larynx,Left iTBS,Cons,Clear,110,3,1,0.8004228000063449,1
3386,104,Larynx,Left iTBS,Cons,Clear,111,4,1,0.483754399931058,1
3387,104,Larynx,Left iTBS,Cons,Clear,112,2,0,0.610511199920438,1
3388,104,Larynx,Left iTBS,Cons,Clear,113,1,0,0.51123009994626,1
3389,104,Larynx,Left iTBS,Cons,Clear,114,3,1,0.52403209998738,1
3390,104,Larynx,Left iTBS,Cons,Clear,115,2,0,0.6433946000179279,1
3391,104,Larynx,Left iTBS,Cons,Clear,116,4,1,0.444395200000145,1
3392,104,Larynx,Left iTBS,Cons,Clear,117,5,1,0.572957800002769,1
3393,104,Larynx,Left iTBS,Cons,Clear,118,4,1,0.538900300045498,1
3394,104,Larynx,Left iTBS,Cons,Clear,119,3,1,0.48288739996496605,1
3395,104,Larynx,Left iTBS,Cons,Clear,120,2,1,0.48555219999980204,1
3396,104,Larynx,Left iTBS,Cons,Clear,121,3,1,0.8158680999185891,1
3397,104,Larynx,Left iTBS,Cons,Clear,122,2,0,0.523393200011924,1
3398,104,Larynx,Left iTBS,Cons,Clear,123,3,1,0.547952100052498,1
3399,104,Larynx,Left iTBS,Cons,Clear,124,1,0,0.593981400015764,1
3400,104,Larynx,Left iTBS,Cons,Clear,125,4,1,0.48089040000923,1
3401,104,Larynx,Left iTBS,Cons,Clear,126,5,1,0.8191041999962181,1
3402,104,Larynx,Left iTBS,Cons,Clear,127,3,1,0.5509315000381321,1
3403,104,Larynx,Left iTBS,Cons,Clear,128,4,1,0.6095562999835239,1
3404,104,Larynx,Left iTBS,Cons,Clear,129,2,0,0.608183200005442,1
3405,104,Larynx,Left iTBS,Cons,Clear,130,3,1,0.474369299947284,1
3406,104,Larynx,Left iTBS,Cons,Clear,131,2,0,0.555349400034174,1
3407,104,Larynx,Left iTBS,Cons,Clear,132,5,1,0.477855400065891,1
3408,104,Larynx,Left iTBS,Cons,Clear,133,3,1,0.530665599973872,1
3409,104,Larynx,Left iTBS,Cons,Clear,134,2,0,0.494732300052419,1
3410,104,Larynx,Left iTBS,Cons,Clear,135,4,1,0.49779469997156395,1
3411,104,Larynx,Left iTBS,Cons,Clear,136,2,0,0.500785799929872,1
3412,104,Larynx,Left iTBS,Cons,Clear,137,1,0,0.6908774999901651,1
3413,104,Larynx,Left iTBS,Cons,Clear,138,5,1,0.5556190999923271,1
3414,104,Larynx,Left iTBS,Cons,Clear,139,5,1,0.49959340004716096,1
3415,104,Larynx,Left iTBS,Cons,Clear,140,1,0,0.639735299977474,1
3416,104,Larynx,Left iTBS,Cons,Clear,141,4,0,0.5544570999918511,1
3417,104,Larynx,Left iTBS,Cons,Clear,142,4,1,0.641489500063472,1
3418,104,Larynx,Left iTBS,Cons,Clear,143,5,1,0.560192100005224,1
3419,104,Larynx,Left iTBS,Cons,Clear,144,3,1,0.963599300011992,1
3420,104,Larynx,Left iTBS,Cons,Clear,145,3,1,0.515247199917212,1
3421,104,Larynx,Left iTBS,Cons,Clear,146,5,1,0.496497299987823,1
3422,104,Larynx,Left iTBS,Cons,Clear,147,3,1,1.05333030002657,1
3423,104,Larynx,Left iTBS,Cons,Clear,148,2,0,0.8858219000976529,1
3424,104,Larynx,Left iTBS,Cons,Clear,149,1,1,0.827126999967732,1
3425,104,Larynx,Left iTBS,Cons,Clear,150,1,0,0.7257465000730009,1
3426,104,Larynx,Left iTBS,Cons,Clear,151,4,1,0.5848329999716949,1
3427,104,Larynx,Left iTBS,Cons,Clear,152,3,1,0.6879088999703531,1
3428,104,Larynx,Left iTBS,Cons,Clear,153,3,1,0.524306599982083,1
3429,104,Larynx,Left iTBS,Cons,Clear,154,4,1,0.555645999964327,1
3430,104,Larynx,Left iTBS,Cons,Clear,155,1,0,0.5579740999965,1
3431,104,Larynx,Left iTBS,Cons,Clear,156,2,1,0.9254850000143051,1
5772,104,Larynx,Sham,Cons,Clear,1,5,1,0.54217620001873,1
5773,104,Larynx,Sham,Cons,Clear,2,4,1,0.473736500018276,1
5774,104,Larynx,Sham,Cons,Clear,3,5,1,0.565381099993829,1
5775,104,Larynx,Sham,Cons,Clear,4,1,0,0.48616480000782797,1
5776,104,Larynx,Sham,Cons,Clear,5,3,1,0.5061584000359289,1
5777,104,Larynx,Sham,Cons,Clear,6,2,0,0.4990793000324629,1
5778,104,Larynx,Sham,Cons,Clear,7,3,1,0.533470900030807,1
5779,104,Larynx,Sham,Cons,Clear,8,5,1,0.505453899968416,1
5780,104,Larynx,Sham,Cons,Clear,9,2,0,0.522840399993584,1
5781,104,Larynx,Sham,Cons,Clear,10,4,1,0.513250000018161,1
5782,104,Larynx,Sham,Cons,Clear,11,5,1,0.4591902999673039,1
5783,104,Larynx,Sham,Cons,Clear,12,2,0,0.630246600019746,1
5784,104,Larynx,Sham,Cons,Clear,13,2,1,0.5153674000175671,1
5785,104,Larynx,Sham,Cons,Clear,14,4,1,0.472850700025447,1
5786,104,Larynx,Sham,Cons,Clear,15,1,0,0.49339359998703003,1
5787,104,Larynx,Sham,Cons,Clear,16,3,1,0.527748099993914,1
5788,104,Larynx,Sham,Cons,Clear,17,3,1,0.5583371000248011,1
5789,104,Larynx,Sham,Cons,Clear,18,3,1,0.46111649996601,1
5790,104,Larynx,Sham,Cons,Clear,19,5,1,0.5770577000221241,1
5791,104,Larynx,Sham,Cons,Clear,20,2,0,0.525021100009326,1
5792,104,Larynx,Sham,Cons,Clear,21,1,0,0.619894800009206,1
5793,104,Larynx,Sham,Cons,Clear,22,2,0,0.647787900001276,1
5794,104,Larynx,Sham,Cons,Clear,23,4,1,0.527280100039206,1
5795,104,Larynx,Sham,Cons,Clear,24,3,1,0.44842109997989604,1
5796,104,Larynx,Sham,Cons,Clear,25,4,1,0.488744899979793,1
5797,104,Larynx,Sham,Cons,Clear,26,1,1,0.527383700013161,1
5798,104,Larynx,Sham,Cons,Clear,27,5,1,0.514945700007956,1
5799,104,Larynx,Sham,Cons,Clear,28,1,0,0.44627189997117994,1
5800,104,Larynx,Sham,Cons,Clear,29,2,0,0.6161940000019971,1
5801,104,Larynx,Sham,Cons,Clear,30,3,1,0.455433700000867,1
5802,104,Larynx,Sham,Cons,Clear,31,4,1,0.5481247999705371,1
5803,104,Larynx,Sham,Cons,Clear,32,3,1,0.485210099956021,1
5804,104,Larynx,Sham,Cons,Clear,33,1,0,0.513042300008237,1
5805,104,Larynx,Sham,Cons,Clear,34,4,1,0.871084999991581,1
5806,104,Larynx,Sham,Cons,Clear,35,3,1,0.45746450003934996,1
5807,104,Larynx,Sham,Cons,Clear,36,2,0,0.573562600009609,1
5808,104,Larynx,Sham,Cons,Clear,37,3,1,0.462526999996044,1
5809,104,Larynx,Sham,Cons,Clear,38,4,1,0.564457700005732,1
5810,104,Larynx,Sham,Cons,Clear,39,3,1,0.532685099984519,1
5811,104,Larynx,Sham,Cons,Clear,40,4,1,0.5131989999790679,1
5812,104,Larynx,Sham,Cons,Clear,41,2,0,0.5344274999806661,1
5813,104,Larynx,Sham,Cons,Clear,42,2,0,0.616808300022967,1
5814,104,Larynx,Sham,Cons,Clear,43,3,1,0.42841319995932303,1
5815,104,Larynx,Sham,Cons,Clear,44,3,1,0.5148760000010949,1
5816,104,Larynx,Sham,Cons,Clear,45,3,1,0.49283830000786105,1
5817,104,Larynx,Sham,Cons,Clear,46,4,1,0.484478899976239,1
5818,104,Larynx,Sham,Cons,Clear,47,1,0,0.5019393000402489,1
5819,104,Larynx,Sham,Cons,Clear,48,1,0,0.56290869996883,1
5820,104,Larynx,Sham,Cons,Clear,49,2,1,0.544558499997947,1
5821,104,Larynx,Sham,Cons,Clear,50,2,1,0.573706800001673,1
5822,104,Larynx,Sham,Cons,Clear,51,4,0,0.5365358999697489,1
5823,104,Larynx,Sham,Cons,Clear,52,5,1,0.528892100031953,1
5824,104,Larynx,Sham,Cons,Clear,53,5,1,0.5170103000127709,1
5825,104,Larynx,Sham,Cons,Clear,54,3,1,0.443576999998186,1
5826,104,Larynx,Sham,Cons,Clear,55,2,0,0.581511999946088,1
5827,104,Larynx,Sham,Cons,Clear,56,4,1,0.5461152000352739,1
5828,104,Larynx,Sham,Cons,Clear,57,1,0,0.47977859998354705,1
5829,104,Larynx,Sham,Cons,Clear,58,1,0,0.597954800003208,1
5830,104,Larynx,Sham,Cons,Clear,59,3,1,0.80266849999316,1
5831,104,Larynx,Sham,Cons,Clear,60,3,1,0.38125279999803796,1
5832,104,Larynx,Sham,Cons,Clear,61,2,1,0.413126499974169,1
5833,104,Larynx,Sham,Cons,Clear,62,5,1,0.546250400017016,1
5834,104,Larynx,Sham,Cons,Clear,63,4,1,0.465906099998392,1
5835,104,Larynx,Sham,Cons,Clear,64,5,1,0.5102909000124779,1
5836,104,Larynx,Sham,Cons,Clear,65,3,1,0.476481700025033,1
5837,104,Larynx,Sham,Cons,Clear,66,4,1,0.48661359999096,1
5838,104,Larynx,Sham,Cons,Clear,67,3,0,0.5267224999843171,1
5839,104,Larynx,Sham,Cons,Clear,68,1,0,0.501445500005502,1
5840,104,Larynx,Sham,Cons,Clear,69,5,1,0.54137140000239,1
5841,104,Larynx,Sham,Cons,Clear,70,1,0,0.486798400001135,1
5842,104,Larynx,Sham,Cons,Clear,71,3,1,0.453014700033236,1
5843,104,Larynx,Sham,Cons,Clear,72,5,1,0.590146999980789,1
5844,104,Larynx,Sham,Cons,Clear,73,3,1,0.422118399990723,1
5845,104,Larynx,Sham,Cons,Clear,74,3,1,0.5755529000307429,1
5846,104,Larynx,Sham,Cons,Clear,75,2,1,0.465502400009427,1
5847,104,Larynx,Sham,Cons,Clear,76,4,1,0.529361900000367,1
5848,104,Larynx,Sham,Cons,Clear,77,2,0,0.515499500033911,1
5849,104,Larynx,Sham,Cons,Clear,78,4,1,0.44251799996709495,1
5850,104,Larynx,Sham,Cons,Clear,79,2,0,0.507927200000267,1
5851,104,Larynx,Sham,Cons,Clear,80,3,1,0.440376899961848,1
5852,104,Larynx,Sham,Cons,Clear,81,5,1,0.5064943000325001,1
5853,104,Larynx,Sham,Cons,Clear,82,4,1,0.462487900047563,1
5854,104,Larynx,Sham,Cons,Clear,83,1,0,0.5009424999589099,1
5855,104,Larynx,Sham,Cons,Clear,84,2,0,0.5467011999571699,1
5856,104,Larynx,Sham,Cons,Clear,85,5,1,0.47329110000282504,1
5857,104,Larynx,Sham,Cons,Clear,86,1,0,0.6495555000146851,1
5858,104,Larynx,Sham,Cons,Clear,87,3,1,0.6062761999783111,1
5859,104,Larynx,Sham,Cons,Clear,88,1,0,0.572515000007115,1
5860,104,Larynx,Sham,Cons,Clear,89,3,1,0.499679500004277,1
5861,104,Larynx,Sham,Cons,Clear,90,1,0,0.610576399951242,1
5862,104,Larynx,Sham,Cons,Clear,91,4,1,0.546483399986755,1
5863,104,Larynx,Sham,Cons,Clear,92,5,1,0.46723989996826293,1
5864,104,Larynx,Sham,Cons,Clear,93,4,1,0.479005699977279,1
5865,104,Larynx,Sham,Cons,Clear,94,4,1,0.5714590999996291,1
5866,104,Larynx,Sham,Cons,Clear,95,5,1,0.45077739999396704,1
5867,104,Larynx,Sham,Cons,Clear,96,2,0,0.538016000005882,1
5868,104,Larynx,Sham,Cons,Clear,97,2,0,0.642330300004687,1
5869,104,Larynx,Sham,Cons,Clear,98,5,1,0.6043678999994879,1
5870,104,Larynx,Sham,Cons,Clear,99,3,1,0.8756600000197071,1
5871,104,Larynx,Sham,Cons,Clear,100,3,1,0.544679500046186,1
5872,104,Larynx,Sham,Cons,Clear,101,4,1,0.546213300025556,1
5873,104,Larynx,Sham,Cons,Clear,102,2,0,0.479171400016639,1
5874,104,Larynx,Sham,Cons,Clear,103,2,0,0.45737230003578605,1
5875,104,Larynx,Sham,Cons,Clear,104,1,0,0.565504500002135,1
5876,104,Larynx,Sham,Cons,Clear,105,4,1,0.452984999981709,1
5877,104,Larynx,Sham,Cons,Clear,106,3,1,0.539315500005614,1
5878,104,Larynx,Sham,Cons,Clear,107,3,1,0.49168530001770705,1
5879,104,Larynx,Sham,Cons,Clear,108,3,1,0.548901900008786,1
5880,104,Larynx,Sham,Cons,Clear,109,4,1,0.507146099989768,1
5881,104,Larynx,Sham,Cons,Clear,110,5,1,0.510643300018273,1
5882,104,Larynx,Sham,Cons,Clear,111,2,0,0.510525799996685,1
5883,104,Larynx,Sham,Cons,Clear,112,2,0,0.46232210000744106,1
5884,104,Larynx,Sham,Cons,Clear,113,3,1,0.577683099952992,1
5885,104,Larynx,Sham,Cons,Clear,114,3,1,0.406073999998625,1
5886,104,Larynx,Sham,Cons,Clear,115,3,1,0.491619299980812,1
5887,104,Larynx,Sham,Cons,Clear,116,1,0,0.45970150001812704,1
5888,104,Larynx,Sham,Cons,Clear,117,4,0,0.467920599970967,1
5889,104,Larynx,Sham,Cons,Clear,118,2,0,0.582914099970367,1
5890,104,Larynx,Sham,Cons,Clear,119,4,1,0.713134900026489,1
5891,104,Larynx,Sham,Cons,Clear,120,2,0,0.584985799971037,1
5892,104,Larynx,Sham,Cons,Clear,121,3,0,0.537598700029776,1
5893,104,Larynx,Sham,Cons,Clear,122,2,0,0.691351999994367,1
5894,104,Larynx,Sham,Cons,Clear,123,5,1,0.50302990002092,1
5895,104,Larynx,Sham,Cons,Clear,124,3,0,0.6628750999807379,1
5896,104,Larynx,Sham,Cons,Clear,125,5,1,0.688954600016586,1
5897,104,Larynx,Sham,Cons,Clear,126,4,1,0.419507600017823,1
5898,104,Larynx,Sham,Cons,Clear,127,4,1,0.483143899997231,1
5899,104,Larynx,Sham,Cons,Clear,128,1,0,0.492737900000066,1
5900,104,Larynx,Sham,Cons,Clear,129,3,1,0.472079499973916,1
5901,104,Larynx,Sham,Cons,Clear,130,5,1,0.53986179997446,1
5902,104,Larynx,Sham,Cons,Clear,131,4,1,0.673776000039652,1
5903,104,Larynx,Sham,Cons,Clear,132,2,0,0.525274000014178,1
5904,104,Larynx,Sham,Cons,Clear,133,3,0,0.581656299997121,1
5905,104,Larynx,Sham,Cons,Clear,134,2,0,0.606263499998022,1
5906,104,Larynx,Sham,Cons,Clear,135,5,1,0.569156599987764,1
5907,104,Larynx,Sham,Cons,Clear,136,3,1,0.477904599974863,1
5908,104,Larynx,Sham,Cons,Clear,137,3,1,0.492093099979684,1
5909,104,Larynx,Sham,Cons,Clear,138,2,0,0.567319600027986,1
5910,104,Larynx,Sham,Cons,Clear,139,1,0,0.614731899986509,1
5911,104,Larynx,Sham,Cons,Clear,140,4,1,0.463446200010367,1
5912,104,Larynx,Sham,Cons,Clear,141,1,0,0.496634599985555,1
5913,104,Larynx,Sham,Cons,Clear,142,3,1,0.494569499976933,1
5914,104,Larynx,Sham,Cons,Clear,143,4,0,0.513206099974923,1
5915,104,Larynx,Sham,Cons,Clear,144,4,0,0.511457599990536,1
5916,104,Larynx,Sham,Cons,Clear,145,1,0,0.673811900021974,1
5917,104,Larynx,Sham,Cons,Clear,146,2,0,0.6609083000221291,1
5918,104,Larynx,Sham,Cons,Clear,147,3,1,0.7313297000364399,1
5919,104,Larynx,Sham,Cons,Clear,148,5,1,0.457507600018289,1
5920,104,Larynx,Sham,Cons,Clear,149,4,1,0.468867199961096,1
5921,104,Larynx,Sham,Cons,Clear,150,5,1,0.43967539997538596,1
5922,104,Larynx,Sham,Cons,Clear,151,3,1,0.45602490002056606,1
5923,104,Larynx,Sham,Cons,Clear,152,2,0,0.50581299996702,1
5924,104,Larynx,Sham,Cons,Clear,153,3,0,0.493036300002132,1
5925,104,Larynx,Sham,Cons,Clear,154,3,0,0.379303699999582,1
5926,104,Larynx,Sham,Cons,Clear,155,1,1,0.36185420001857,1
5927,104,Larynx,Sham,Cons,Clear,156,1,0,0.50008169998182,1
6396,123,Larynx,Left iTBS,Cons,Clear,1,5,1,0.451365100001567,1
6397,123,Larynx,Left iTBS,Cons,Clear,2,1,0,0.548630899997079,1
6398,123,Larynx,Left iTBS,Cons,Clear,3,4,1,0.48436310001125105,1
6399,123,Larynx,Left iTBS,Cons,Clear,4,3,1,0.48801859999366604,1
6400,123,Larynx,Left iTBS,Cons,Clear,5,3,1,0.38216690000263,1
6401,123,Larynx,Left iTBS,Cons,Clear,6,1,0,0.588596200002939,1
6402,123,Larynx,Left iTBS,Cons,Clear,7,5,1,0.44263130000035705,1
6403,123,Larynx,Left iTBS,Cons,Clear,8,4,1,0.39466330000141203,1
6404,123,Larynx,Left iTBS,Cons,Clear,9,3,1,0.34723179999855297,1
6405,123,Larynx,Left iTBS,Cons,Clear,10,3,1,0.301371099994867,1
6406,123,Larynx,Left iTBS,Cons,Clear,11,1,1,0.33795780000218706,1
6407,123,Larynx,Left iTBS,Cons,Clear,12,2,1,0.376073199993698,1
6408,123,Larynx,Left iTBS,Cons,Clear,13,4,1,0.36286189999373203,1
6409,123,Larynx,Left iTBS,Cons,Clear,14,3,1,0.37266880000243,1
6410,123,Larynx,Left iTBS,Cons,Clear,15,2,1,0.5452487000002291,1
6411,123,Larynx,Left iTBS,Cons,Clear,16,2,1,0.375114300011774,1
6412,123,Larynx,Left iTBS,Cons,Clear,17,4,1,0.39722640000400106,1
6413,123,Larynx,Left iTBS,Cons,Clear,18,2,1,0.4095941999985371,1
6414,123,Larynx,Left iTBS,Cons,Clear,19,3,1,0.41492250000010206,1
6415,123,Larynx,Left iTBS,Cons,Clear,20,3,1,0.39324689999921203,1
6416,123,Larynx,Left iTBS,Cons,Clear,21,5,1,0.383700800011866,1
6417,123,Larynx,Left iTBS,Cons,Clear,22,1,0,0.46354749999591105,1
6418,123,Larynx,Left iTBS,Cons,Clear,23,4,1,0.5555615000048421,1
6419,123,Larynx,Left iTBS,Cons,Clear,24,4,1,0.38969949999591297,1
6420,123,Larynx,Left iTBS,Cons,Clear,25,4,1,0.375167699996382,1
6421,123,Larynx,Left iTBS,Cons,Clear,26,3,1,0.417281300004106,1
6422,123,Larynx,Left iTBS,Cons,Clear,27,3,1,0.35149580000143,1
6423,123,Larynx,Left iTBS,Cons,Clear,28,1,0,0.5643850000051321,1
6424,123,Larynx,Left iTBS,Cons,Clear,29,2,0,0.601034899998922,1
6425,123,Larynx,Left iTBS,Cons,Clear,30,5,1,0.371354799994151,1
6426,123,Larynx,Left iTBS,Cons,Clear,31,2,0,0.63328010000987,1
6427,123,Larynx,Left iTBS,Cons,Clear,32,5,1,0.594982099995832,1
6428,123,Larynx,Left iTBS,Cons,Clear,33,5,1,0.367527099995641,1
6429,123,Larynx,Left iTBS,Cons,Clear,34,2,1,0.41369679999479597,1
6430,123,Larynx,Left iTBS,Cons,Clear,35,3,1,0.333097300012014,1
6431,123,Larynx,Left iTBS,Cons,Clear,36,4,1,0.348617700001341,1
6432,123,Larynx,Left iTBS,Cons,Clear,37,2,1,0.343465700003435,1
6433,123,Larynx,Left iTBS,Cons,Clear,38,1,0,0.6075967999931889,1
6434,123,Larynx,Left iTBS,Cons,Clear,39,3,1,0.450503200001549,1
6435,123,Larynx,Left iTBS,Cons,Clear,40,1,1,0.32720440000412104,1
6436,123,Larynx,Left iTBS,Cons,Clear,41,2,0,0.653776100007235,1
6437,123,Larynx,Left iTBS,Cons,Clear,42,3,1,0.648582599998917,1
6438,123,Larynx,Left iTBS,Cons,Clear,43,2,0,0.684506799996598,1
6439,123,Larynx,Left iTBS,Cons,Clear,44,1,0,0.7201150000037159,1
6440,123,Larynx,Left iTBS,Cons,Clear,45,3,1,0.7344627999991641,1
6441,123,Larynx,Left iTBS,Cons,Clear,46,2,0,0.6132325000071429,1
6442,123,Larynx,Left iTBS,Cons,Clear,47,3,1,0.41722319999826096,1
6443,123,Larynx,Left iTBS,Cons,Clear,48,2,0,0.56131250000908,1
6444,123,Larynx,Left iTBS,Cons,Clear,49,3,1,0.516720600004192,1
6445,123,Larynx,Left iTBS,Cons,Clear,50,4,1,0.37642399998731,1
6446,123,Larynx,Left iTBS,Cons,Clear,51,3,1,0.38172010000562295,1
6447,123,Larynx,Left iTBS,Cons,Clear,52,2,1,0.744128899998032,1
6448,123,Larynx,Left iTBS,Cons,Clear,53,3,1,0.47807310000644104,1
6449,123,Larynx,Left iTBS,Cons,Clear,54,4,1,0.503922800009605,1
6450,123,Larynx,Left iTBS,Cons,Clear,55,4,1,0.418528700000024,1
6451,123,Larynx,Left iTBS,Cons,Clear,56,3,1,0.44415529999241704,1
6452,123,Larynx,Left iTBS,Cons,Clear,57,4,1,0.349899999986519,1
6453,123,Larynx,Left iTBS,Cons,Clear,58,4,1,0.38787589999265,1
6454,123,Larynx,Left iTBS,Cons,Clear,59,4,1,0.37707599998975605,1
6455,123,Larynx,Left iTBS,Cons,Clear,60,3,1,0.376636599990889,1
6456,123,Larynx,Left iTBS,Cons,Clear,61,3,1,0.322050499991747,1
6457,123,Larynx,Left iTBS,Cons,Clear,62,5,1,0.36825369999860397,1
6458,123,Larynx,Left iTBS,Cons,Clear,63,1,1,0.391209200010053,1
6459,123,Larynx,Left iTBS,Cons,Clear,64,3,1,0.515544399997452,1
6460,123,Larynx,Left iTBS,Cons,Clear,65,2,0,0.680946599997696,1
6461,123,Larynx,Left iTBS,Cons,Clear,66,1,0,0.649931299994932,1
6462,123,Larynx,Left iTBS,Cons,Clear,67,2,0,0.5490696000051679,1
6463,123,Larynx,Left iTBS,Cons,Clear,68,5,1,0.47384120000060603,1
6464,123,Larynx,Left iTBS,Cons,Clear,69,2,1,0.36078779998933896,1
6465,123,Larynx,Left iTBS,Cons,Clear,70,5,1,0.37324789998820096,1
6466,123,Larynx,Left iTBS,Cons,Clear,71,1,0,0.525997299992014,1
6467,123,Larynx,Left iTBS,Cons,Clear,72,5,1,0.47923029999947203,1
6468,123,Larynx,Left iTBS,Cons,Clear,73,4,1,0.41426080001110704,1
6469,123,Larynx,Left iTBS,Cons,Clear,74,4,1,0.348728199998732,1
6470,123,Larynx,Left iTBS,Cons,Clear,75,1,0,0.5545762999972789,1
6471,123,Larynx,Left iTBS,Cons,Clear,76,5,1,0.41166549999616103,1
6472,123,Larynx,Left iTBS,Cons,Clear,77,3,1,0.317607400007546,1
6473,123,Larynx,Left iTBS,Cons,Clear,78,5,1,0.3622926999960329,1
6474,123,Larynx,Left iTBS,Cons,Clear,79,2,0,0.5647660999966321,1
6475,123,Larynx,Left iTBS,Cons,Clear,80,3,1,0.425899199995911,1
6476,123,Larynx,Left iTBS,Cons,Clear,81,4,1,0.348091099993326,1
6477,123,Larynx,Left iTBS,Cons,Clear,82,5,1,0.38172550000308497,1
6478,123,Larynx,Left iTBS,Cons,Clear,83,3,0,0.735692199988989,1
6479,123,Larynx,Left iTBS,Cons,Clear,84,2,0,0.565137699988554,1
6480,123,Larynx,Left iTBS,Cons,Clear,85,2,0,0.6112957000004829,1
6481,123,Larynx,Left iTBS,Cons,Clear,86,4,1,0.459098800012725,1
6482,123,Larynx,Left iTBS,Cons,Clear,87,4,1,0.4185115000000221,1
6483,123,Larynx,Left iTBS,Cons,Clear,88,3,1,0.35282250000455,1
6484,123,Larynx,Left iTBS,Cons,Clear,89,2,0,0.60262469999725,1
6485,123,Larynx,Left iTBS,Cons,Clear,90,3,0,0.669828199999756,1
6486,123,Larynx,Left iTBS,Cons,Clear,91,3,0,0.703500499992515,1
6487,123,Larynx,Left iTBS,Cons,Clear,92,1,0,0.6123049000016179,1
6488,123,Larynx,Left iTBS,Cons,Clear,93,2,0,0.687658399998327,1
6489,123,Larynx,Left iTBS,Cons,Clear,94,3,1,0.501896300003864,1
6490,123,Larynx,Left iTBS,Cons,Clear,95,5,1,0.372795000002952,1
6491,123,Larynx,Left iTBS,Cons,Clear,96,4,1,0.37540440000884706,1
6492,123,Larynx,Left iTBS,Cons,Clear,97,5,1,0.517168399994262,1
6493,123,Larynx,Left iTBS,Cons,Clear,98,4,1,0.471154800005024,1
6494,123,Larynx,Left iTBS,Cons,Clear,99,1,0,0.593541299997014,1
6495,123,Larynx,Left iTBS,Cons,Clear,100,1,0,0.610042900007102,1
6496,123,Larynx,Left iTBS,Cons,Clear,101,1,0,0.575597099988954,1
6497,123,Larynx,Left iTBS,Cons,Clear,102,3,1,0.501363300005323,1
6498,123,Larynx,Left iTBS,Cons,Clear,103,3,1,0.5291355999943329,1
6499,123,Larynx,Left iTBS,Cons,Clear,104,5,1,0.375876700010849,1
6500,123,Larynx,Left iTBS,Cons,Clear,105,4,1,0.37216079999052504,1
6501,123,Larynx,Left iTBS,Cons,Clear,106,5,1,0.368762300000526,1
6502,123,Larynx,Left iTBS,Cons,Clear,107,3,1,0.3995113000128189,1
6503,123,Larynx,Left iTBS,Cons,Clear,108,2,0,0.609200099992449,1
6504,123,Larynx,Left iTBS,Cons,Clear,109,2,0,0.5579658999922691,1
6505,123,Larynx,Left iTBS,Cons,Clear,110,4,1,0.499045400007162,1
6506,123,Larynx,Left iTBS,Cons,Clear,111,2,0,0.682391599999391,1
6507,123,Larynx,Left iTBS,Cons,Clear,112,1,0,0.679984699992929,1
6508,123,Larynx,Left iTBS,Cons,Clear,113,5,1,0.41937959998904295,1
6509,123,Larynx,Left iTBS,Cons,Clear,114,3,1,0.359723999994458,1
6510,123,Larynx,Left iTBS,Cons,Clear,115,4,1,0.36676869999791994,1
6511,123,Larynx,Left iTBS,Cons,Clear,116,1,0,0.559781300005852,1
6512,123,Larynx,Left iTBS,Cons,Clear,117,3,1,0.440779600001406,1
6513,123,Larynx,Left iTBS,Cons,Clear,118,4,1,0.44439780000539003,1
6514,123,Larynx,Left iTBS,Cons,Clear,119,4,1,0.34463940000569,1
6515,123,Larynx,Left iTBS,Cons,Clear,120,3,1,0.388140800001565,1
6516,123,Larynx,Left iTBS,Cons,Clear,121,2,1,0.319476900011068,1
6517,123,Larynx,Left iTBS,Cons,Clear,122,3,1,0.5086543000070379,1
6518,123,Larynx,Left iTBS,Cons,Clear,123,3,1,0.461760699996375,1
6519,123,Larynx,Left iTBS,Cons,Clear,124,1,0,0.5036113999958621,1
6520,123,Larynx,Left iTBS,Cons,Clear,125,3,1,0.421375200006878,1
6521,123,Larynx,Left iTBS,Cons,Clear,126,4,1,0.399561399986851,1
6522,123,Larynx,Left iTBS,Cons,Clear,127,4,1,0.386227499999222,1
6523,123,Larynx,Left iTBS,Cons,Clear,128,5,1,0.35915070000919497,1
6524,123,Larynx,Left iTBS,Cons,Clear,129,5,1,0.46701720000419294,1
6525,123,Larynx,Left iTBS,Cons,Clear,130,2,1,0.375635099990177,1
6526,123,Larynx,Left iTBS,Cons,Clear,131,2,0,0.8194102999987081,1
6527,123,Larynx,Left iTBS,Cons,Clear,132,4,1,0.36426050000591204,1
6528,123,Larynx,Left iTBS,Cons,Clear,133,5,1,0.38125130000116797,1
6529,123,Larynx,Left iTBS,Cons,Clear,134,2,0,0.696112899997388,1
6530,123,Larynx,Left iTBS,Cons,Clear,135,5,1,0.38418720000481704,1
6531,123,Larynx,Left iTBS,Cons,Clear,136,4,1,0.344238799996674,1
6532,123,Larynx,Left iTBS,Cons,Clear,137,2,0,0.6159600999963001,1
6533,123,Larynx,Left iTBS,Cons,Clear,138,1,1,0.5904945999936899,1
6534,123,Larynx,Left iTBS,Cons,Clear,139,2,0,0.564683899996453,1
6535,123,Larynx,Left iTBS,Cons,Clear,140,1,0,0.591615600002115,1
6536,123,Larynx,Left iTBS,Cons,Clear,141,4,1,0.432262300004368,1
6537,123,Larynx,Left iTBS,Cons,Clear,142,5,1,0.37963840000156795,1
6538,123,Larynx,Left iTBS,Cons,Clear,143,3,1,0.6327285999868759,1
6539,123,Larynx,Left iTBS,Cons,Clear,144,3,1,0.47676169998885604,1
6540,123,Larynx,Left iTBS,Cons,Clear,145,2,0,0.914203000007547,1
6541,123,Larynx,Left iTBS,Cons,Clear,146,1,0,0.571688899988658,1
6542,123,Larynx,Left iTBS,Cons,Clear,147,3,0,0.602387100007036,1
6543,123,Larynx,Left iTBS,Cons,Clear,148,2,0,0.60735210000712,1
6544,123,Larynx,Left iTBS,Cons,Clear,149,3,0,0.7173553000029641,1
6545,123,Larynx,Left iTBS,Cons,Clear,150,1,0,0.666512199997669,1
6546,123,Larynx,Left iTBS,Cons,Clear,151,5,1,0.42753889999585204,1
6547,123,Larynx,Left iTBS,Cons,Clear,152,3,1,0.5518245999992359,1
6548,123,Larynx,Left iTBS,Cons,Clear,153,4,1,0.4126280999917071,1
6549,123,Larynx,Left iTBS,Cons,Clear,154,3,1,0.42466170000261605,1
6550,123,Larynx,Left iTBS,Cons,Clear,155,1,1,0.46873700000287505,1
6551,123,Larynx,Left iTBS,Cons,Clear,156,3,1,0.69446080000489,1
8892,123,Larynx,Sham,Cons,Clear,1,3,0,0.663217500085011,1
8893,123,Larynx,Sham,Cons,Clear,2,4,1,0.47877150005660996,1
8894,123,Larynx,Sham,Cons,Clear,3,2,1,0.609148100018501,1
8895,123,Larynx,Sham,Cons,Clear,4,5,1,0.41554849990643605,1
8896,123,Larynx,Sham,Cons,Clear,5,2,0,0.6487003999063751,1
8897,123,Larynx,Sham,Cons,Clear,6,3,1,0.541122099966742,1
8898,123,Larynx,Sham,Cons,Clear,7,2,1,0.40780780010391,1
8899,123,Larynx,Sham,Cons,Clear,8,5,1,0.36240109999198494,1
8900,123,Larynx,Sham,Cons,Clear,9,1,1,0.38000699994154297,1
8901,123,Larynx,Sham,Cons,Clear,10,3,1,0.48610830004327,1
8902,123,Larynx,Sham,Cons,Clear,11,4,1,0.43499349988997,1
8903,123,Larynx,Sham,Cons,Clear,12,3,1,0.414369500009343,1
8904,123,Larynx,Sham,Cons,Clear,13,5,1,0.496805800008588,1
8905,123,Larynx,Sham,Cons,Clear,14,4,1,0.45130209997296294,1
8906,123,Larynx,Sham,Cons,Clear,15,4,1,0.440384900080971,1
8907,123,Larynx,Sham,Cons,Clear,16,2,1,0.4033231000648811,1
8908,123,Larynx,Sham,Cons,Clear,17,4,1,0.569533100002445,1
8909,123,Larynx,Sham,Cons,Clear,18,3,1,0.4718284000409771,1
8910,123,Larynx,Sham,Cons,Clear,19,1,0,0.511027700034902,1
8911,123,Larynx,Sham,Cons,Clear,20,2,1,0.37663199997041397,1
8912,123,Larynx,Sham,Cons,Clear,21,3,1,0.497107499977574,1
8913,123,Larynx,Sham,Cons,Clear,22,5,1,0.390584000037052,1
8914,123,Larynx,Sham,Cons,Clear,23,4,1,0.433863999904133,1
8915,123,Larynx,Sham,Cons,Clear,24,1,0,0.528785500093363,1
8916,123,Larynx,Sham,Cons,Clear,25,5,1,0.47837350005284,1
8917,123,Larynx,Sham,Cons,Clear,26,2,1,0.346135700005107,1
8918,123,Larynx,Sham,Cons,Clear,27,3,1,0.5457629999145871,1
8919,123,Larynx,Sham,Cons,Clear,28,1,0,0.769922200008295,1
8920,123,Larynx,Sham,Cons,Clear,29,4,1,0.879807899938896,1
8921,123,Larynx,Sham,Cons,Clear,30,1,0,0.518930500023998,1
8922,123,Larynx,Sham,Cons,Clear,31,1,0,0.565632299985737,1
8923,123,Larynx,Sham,Cons,Clear,32,3,1,0.468460199888796,1
8924,123,Larynx,Sham,Cons,Clear,33,5,1,0.36361299990676293,1
8925,123,Larynx,Sham,Cons,Clear,34,2,0,0.536855999962427,1
8926,123,Larynx,Sham,Cons,Clear,35,4,1,0.3918847000459211,1
8927,123,Larynx,Sham,Cons,Clear,36,2,1,0.449209999991581,1
8928,123,Larynx,Sham,Cons,Clear,37,3,1,0.39595200004987396,1
8929,123,Larynx,Sham,Cons,Clear,38,3,1,0.34959380002692303,1
8930,123,Larynx,Sham,Cons,Clear,39,3,1,0.41465489997062804,1
8931,123,Larynx,Sham,Cons,Clear,40,2,1,0.6211153999902309,1
8932,123,Larynx,Sham,Cons,Clear,41,4,1,0.45984200004022596,1
8933,123,Larynx,Sham,Cons,Clear,42,4,1,0.5660029000137,1
8934,123,Larynx,Sham,Cons,Clear,43,2,1,0.5688358999323101,1
8935,123,Larynx,Sham,Cons,Clear,44,3,1,0.605189599911682,1
8936,123,Larynx,Sham,Cons,Clear,45,3,1,0.640283000073396,1
8937,123,Larynx,Sham,Cons,Clear,46,1,0,0.5601390999509019,1
8938,123,Larynx,Sham,Cons,Clear,47,4,1,0.684137200005353,1
8939,123,Larynx,Sham,Cons,Clear,48,3,1,0.377128800028004,1
8940,123,Larynx,Sham,Cons,Clear,49,2,1,0.38026890007313296,1
8941,123,Larynx,Sham,Cons,Clear,50,5,1,0.36041409999597795,1
8942,123,Larynx,Sham,Cons,Clear,51,1,0,0.608957699965686,1
8943,123,Larynx,Sham,Cons,Clear,52,5,1,0.37292550003621705,1
8944,123,Larynx,Sham,Cons,Clear,53,4,1,0.32657510007265994,1
8945,123,Larynx,Sham,Cons,Clear,54,3,1,0.260311299934983,1
8946,123,Larynx,Sham,Cons,Clear,55,1,1,0.276063999976031,1
8947,123,Larynx,Sham,Cons,Clear,56,5,1,0.43088080000598,1
8948,123,Larynx,Sham,Cons,Clear,57,3,1,0.37724199995864205,1
8949,123,Larynx,Sham,Cons,Clear,58,4,1,0.430339899961837,1
8950,123,Larynx,Sham,Cons,Clear,59,3,1,0.6187391000567,1
8951,123,Larynx,Sham,Cons,Clear,60,2,1,0.38113069999963,1
8952,123,Larynx,Sham,Cons,Clear,61,3,1,0.556596100097522,1
8953,123,Larynx,Sham,Cons,Clear,62,3,1,0.48240059998352103,1
8954,123,Larynx,Sham,Cons,Clear,63,2,1,0.43207430001348296,1
8955,123,Larynx,Sham,Cons,Clear,64,5,1,0.5819381000474101,1
8956,123,Larynx,Sham,Cons,Clear,65,5,1,0.36659360001795,1
8957,123,Larynx,Sham,Cons,Clear,66,1,0,0.6017624000087379,1
8958,123,Larynx,Sham,Cons,Clear,67,3,1,0.641593700041994,1
8959,123,Larynx,Sham,Cons,Clear,68,4,1,0.459608100005426,1
8960,123,Larynx,Sham,Cons,Clear,69,2,0,0.519737599999644,1
8961,123,Larynx,Sham,Cons,Clear,70,3,1,0.337890699971467,1
8962,123,Larynx,Sham,Cons,Clear,71,3,1,0.516521199955605,1
8963,123,Larynx,Sham,Cons,Clear,72,2,0,1.05420730006881,1
8964,123,Larynx,Sham,Cons,Clear,73,1,0,0.6681480000261221,1
8965,123,Larynx,Sham,Cons,Clear,74,4,1,0.5089319999096921,1
8966,123,Larynx,Sham,Cons,Clear,75,5,1,0.5657353999558841,1
8967,123,Larynx,Sham,Cons,Clear,76,1,0,0.569870700011961,1
8968,123,Larynx,Sham,Cons,Clear,77,2,0,0.7914224999258291,1
8969,123,Larynx,Sham,Cons,Clear,78,4,1,0.381552300066687,1
8970,123,Larynx,Sham,Cons,Clear,79,3,1,0.513077400042675,1
8971,123,Larynx,Sham,Cons,Clear,80,4,1,0.43070819997228704,1
8972,123,Larynx,Sham,Cons,Clear,81,2,1,0.706666799960658,1
8973,123,Larynx,Sham,Cons,Clear,82,1,0,0.630999300046824,1
8974,123,Larynx,Sham,Cons,Clear,83,1,0,0.990472700097598,1
8975,123,Larynx,Sham,Cons,Clear,84,3,1,0.713512199930847,1
8976,123,Larynx,Sham,Cons,Clear,85,3,1,0.434351500007324,1
8977,123,Larynx,Sham,Cons,Clear,86,5,1,0.45247210003435606,1
8978,123,Larynx,Sham,Cons,Clear,87,5,1,0.404435700038448,1
8979,123,Larynx,Sham,Cons,Clear,88,3,1,0.297924699960276,1
8980,123,Larynx,Sham,Cons,Clear,89,3,1,0.41651110001839703,1
8981,123,Larynx,Sham,Cons,Clear,90,3,1,0.48808020004071295,1
8982,123,Larynx,Sham,Cons,Clear,91,4,1,0.627907799906097,1
8983,123,Larynx,Sham,Cons,Clear,92,2,1,0.8904097999911759,1
8984,123,Larynx,Sham,Cons,Clear,93,3,1,0.5060490999603641,1
8985,123,Larynx,Sham,Cons,Clear,94,4,1,0.478531299973838,1
8986,123,Larynx,Sham,Cons,Clear,95,5,1,0.4843150000087921,1
8987,123,Larynx,Sham,Cons,Clear,96,4,1,0.503425500006415,1
8988,123,Larynx,Sham,Cons,Clear,97,5,1,0.5517540000146249,1
8989,123,Larynx,Sham,Cons,Clear,98,3,1,0.504464800003916,1
8990,123,Larynx,Sham,Cons,Clear,99,2,0,0.606345599982888,1
8991,123,Larynx,Sham,Cons,Clear,100,3,1,0.431687099975534,1
8992,123,Larynx,Sham,Cons,Clear,101,4,1,0.33889219991397096,1
8993,123,Larynx,Sham,Cons,Clear,102,1,0,0.565093000070192,1
8994,123,Larynx,Sham,Cons,Clear,103,1,0,0.576436599949375,1
8995,123,Larynx,Sham,Cons,Clear,104,2,1,0.5595745999598879,1
8996,123,Larynx,Sham,Cons,Clear,105,2,0,0.752073299954645,1
8997,123,Larynx,Sham,Cons,Clear,106,5,1,0.46695589995943004,1
8998,123,Larynx,Sham,Cons,Clear,107,4,1,0.38407859997823796,1
8999,123,Larynx,Sham,Cons,Clear,108,2,1,0.37800790008623203,1
9000,123,Larynx,Sham,Cons,Clear,109,4,1,0.39161549997516,1
9001,123,Larynx,Sham,Cons,Clear,110,2,1,0.471789199975319,1
9002,123,Larynx,Sham,Cons,Clear,111,3,1,0.643698600004427,1
9003,123,Larynx,Sham,Cons,Clear,112,1,0,0.58779689995572,1
9004,123,Larynx,Sham,Cons,Clear,113,1,1,0.40108599991071997,1
9005,123,Larynx,Sham,Cons,Clear,114,3,1,0.41328639991115795,1
9006,123,Larynx,Sham,Cons,Clear,115,4,1,0.45347910001874,1
9007,123,Larynx,Sham,Cons,Clear,116,2,0,0.748297899961472,1
9008,123,Larynx,Sham,Cons,Clear,117,5,1,0.4395337000023571,1
9009,123,Larynx,Sham,Cons,Clear,118,3,1,0.35312450001947604,1
9010,123,Larynx,Sham,Cons,Clear,119,3,1,0.37298999994527504,1
9011,123,Larynx,Sham,Cons,Clear,120,2,1,0.34043410001322605,1
9012,123,Larynx,Sham,Cons,Clear,121,1,1,0.449144699960016,1
9013,123,Larynx,Sham,Cons,Clear,122,3,1,0.622139299986884,1
9014,123,Larynx,Sham,Cons,Clear,123,3,1,0.476697799982503,1
9015,123,Larynx,Sham,Cons,Clear,124,2,1,0.448133099940605,1
9016,123,Larynx,Sham,Cons,Clear,125,1,0,0.6261199999134991,1
9017,123,Larynx,Sham,Cons,Clear,126,4,1,0.51335789996665,1
9018,123,Larynx,Sham,Cons,Clear,127,4,1,0.49332090001553297,1
9019,123,Larynx,Sham,Cons,Clear,128,5,1,0.355879899929278,1
9020,123,Larynx,Sham,Cons,Clear,129,5,1,0.44639309996273396,1
9021,123,Larynx,Sham,Cons,Clear,130,5,1,0.38051260006614,1
9022,123,Larynx,Sham,Cons,Clear,131,3,1,0.5398303999099879,1
9023,123,Larynx,Sham,Cons,Clear,132,1,0,0.575281600002199,1
9024,123,Larynx,Sham,Cons,Clear,133,1,0,0.6510298000648621,1
9025,123,Larynx,Sham,Cons,Clear,134,2,0,0.6793010999681429,1
9026,123,Larynx,Sham,Cons,Clear,135,2,1,0.425472900038585,1
9027,123,Larynx,Sham,Cons,Clear,136,2,1,0.349906599964015,1
9028,123,Larynx,Sham,Cons,Clear,137,5,1,0.4122769000241529,1
9029,123,Larynx,Sham,Cons,Clear,138,5,1,0.37706340011209205,1
9030,123,Larynx,Sham,Cons,Clear,139,4,1,0.443844499997795,1
9031,123,Larynx,Sham,Cons,Clear,140,4,1,0.515743599971756,1
9032,123,Larynx,Sham,Cons,Clear,141,2,0,0.703474100097083,1
9033,123,Larynx,Sham,Cons,Clear,142,2,1,0.38120659999549394,1
9034,123,Larynx,Sham,Cons,Clear,143,4,1,0.45808100001886504,1
9035,123,Larynx,Sham,Cons,Clear,144,5,1,0.36442840006202504,1
9036,123,Larynx,Sham,Cons,Clear,145,3,1,0.387875200016424,1
9037,123,Larynx,Sham,Cons,Clear,146,3,1,0.35562679998111,1
9038,123,Larynx,Sham,Cons,Clear,147,3,1,0.319056899985299,1
9039,123,Larynx,Sham,Cons,Clear,148,3,1,0.40138259995728703,1
9040,123,Larynx,Sham,Cons,Clear,149,3,1,0.342998999985866,1
9041,123,Larynx,Sham,Cons,Clear,150,4,1,0.348280899925157,1
9042,123,Larynx,Sham,Cons,Clear,151,4,1,0.34149350004736306,1
9043,123,Larynx,Sham,Cons,Clear,152,4,1,0.35459070000797493,1
9044,123,Larynx,Sham,Cons,Clear,153,1,0,0.549149800091982,1
9045,123,Larynx,Sham,Cons,Clear,154,3,1,0.657464199932292,1
9046,123,Larynx,Sham,Cons,Clear,155,1,1,0.358980800025165,1
9047,123,Larynx,Sham,Cons,Clear,156,2,0,0.6610094999196011,1
9516,139,Larynx,Left iTBS,Cons,Clear,1,4,1,0.64143819999299,1
9517,139,Larynx,Left iTBS,Cons,Clear,2,2,0,0.43735580000793606,1
9518,139,Larynx,Left iTBS,Cons,Clear,3,4,1,0.501306500009377,1
9519,139,Larynx,Left iTBS,Cons,Clear,4,3,0,0.9642730000050509,1
9520,139,Larynx,Left iTBS,Cons,Clear,5,2,1,0.5813618000101999,1
9521,139,Larynx,Left iTBS,Cons,Clear,6,3,1,0.6141946999996429,1
9522,139,Larynx,Left iTBS,Cons,Clear,7,5,1,0.7440870000136779,1
9523,139,Larynx,Left iTBS,Cons,Clear,8,1,0,0.581758600004832,1
9524,139,Larynx,Left iTBS,Cons,Clear,9,2,0,0.63290669998969,1
9525,139,Larynx,Left iTBS,Cons,Clear,10,3,1,0.519369000001461,1
9526,139,Larynx,Left iTBS,Cons,Clear,11,4,1,0.548200299992459,1
9527,139,Larynx,Left iTBS,Cons,Clear,12,3,0,0.6727471999911361,1
9528,139,Larynx,Left iTBS,Cons,Clear,13,5,1,0.5698027000034929,1
9529,139,Larynx,Left iTBS,Cons,Clear,14,3,1,0.811215400011861,1
9530,139,Larynx,Left iTBS,Cons,Clear,15,4,1,0.6908043000003089,1
9531,139,Larynx,Left iTBS,Cons,Clear,16,1,0,0.452328800005489,1
9532,139,Larynx,Left iTBS,Cons,Clear,17,1,0,0.504510900005698,1
9533,139,Larynx,Left iTBS,Cons,Clear,18,1,0,0.6124573000124661,1
9534,139,Larynx,Left iTBS,Cons,Clear,19,5,1,0.613812299998244,1
9535,139,Larynx,Left iTBS,Cons,Clear,20,3,0,0.878010000000359,1
9536,139,Larynx,Left iTBS,Cons,Clear,21,3,1,0.6838134999998149,1
9537,139,Larynx,Left iTBS,Cons,Clear,22,2,0,0.563471400004346,1
9538,139,Larynx,Left iTBS,Cons,Clear,23,5,1,0.45635220000985993,1
9539,139,Larynx,Left iTBS,Cons,Clear,24,4,1,0.572920499995234,1
9540,139,Larynx,Left iTBS,Cons,Clear,25,2,0,0.440468399989186,1
9541,139,Larynx,Left iTBS,Cons,Clear,26,1,0,0.5728744999942139,1
9542,139,Larynx,Left iTBS,Cons,Clear,27,2,0,0.7096771999931659,1
9543,139,Larynx,Left iTBS,Cons,Clear,28,3,1,0.5498737000016259,1
9544,139,Larynx,Left iTBS,Cons,Clear,29,3,1,0.40603250000276603,1
9545,139,Larynx,Left iTBS,Cons,Clear,30,4,1,0.597434900002554,1
9546,139,Larynx,Left iTBS,Cons,Clear,31,3,0,0.8751934000029,1
9547,139,Larynx,Left iTBS,Cons,Clear,32,5,1,0.64459799999895,1
9548,139,Larynx,Left iTBS,Cons,Clear,33,5,1,0.701900200001546,1
9549,139,Larynx,Left iTBS,Cons,Clear,34,4,1,0.659452399995644,1
9550,139,Larynx,Left iTBS,Cons,Clear,35,2,0,0.75131490000058,1
9551,139,Larynx,Left iTBS,Cons,Clear,36,3,0,0.7502593999961391,1
9552,139,Larynx,Left iTBS,Cons,Clear,37,4,1,0.5531402999913551,1
9553,139,Larynx,Left iTBS,Cons,Clear,38,1,0,0.654388499999186,1
9554,139,Larynx,Left iTBS,Cons,Clear,39,2,0,0.678988900006516,1
9555,139,Larynx,Left iTBS,Cons,Clear,40,3,0,0.674435499997344,1
9556,139,Larynx,Left iTBS,Cons,Clear,41,2,0,0.7413189000071719,1
9557,139,Larynx,Left iTBS,Cons,Clear,42,3,1,0.7500015000114221,1
9558,139,Larynx,Left iTBS,Cons,Clear,43,5,1,0.522045500008971,1
9559,139,Larynx,Left iTBS,Cons,Clear,44,5,1,0.592400399997132,1
9560,139,Larynx,Left iTBS,Cons,Clear,45,5,1,0.53670019999845,1
9561,139,Larynx,Left iTBS,Cons,Clear,46,2,0,0.6595705000072479,1
9562,139,Larynx,Left iTBS,Cons,Clear,47,4,1,0.556634100008523,1
9563,139,Larynx,Left iTBS,Cons,Clear,48,4,1,0.6184871000004929,1
9564,139,Larynx,Left iTBS,Cons,Clear,49,1,0,0.454919600000721,1
9565,139,Larynx,Left iTBS,Cons,Clear,50,3,1,0.574215800006641,1
9566,139,Larynx,Left iTBS,Cons,Clear,51,4,1,0.505144300012034,1
9567,139,Larynx,Left iTBS,Cons,Clear,52,3,1,0.748629200010328,1
9568,139,Larynx,Left iTBS,Cons,Clear,53,2,0,0.6898058000078889,1
9569,139,Larynx,Left iTBS,Cons,Clear,54,1,0,0.6714101999968989,1
9570,139,Larynx,Left iTBS,Cons,Clear,55,2,0,0.6599974999990079,1
9571,139,Larynx,Left iTBS,Cons,Clear,56,2,0,0.8515008000103991,1
9572,139,Larynx,Left iTBS,Cons,Clear,57,1,0,0.6569597999914549,1
9573,139,Larynx,Left iTBS,Cons,Clear,58,1,0,0.6860187999991469,1
9574,139,Larynx,Left iTBS,Cons,Clear,59,3,1,0.6105760999926129,1
9575,139,Larynx,Left iTBS,Cons,Clear,60,3,1,0.582912099998794,1
9576,139,Larynx,Left iTBS,Cons,Clear,61,5,1,0.600610299996333,1
9577,139,Larynx,Left iTBS,Cons,Clear,62,1,0,0.5597522000025489,1
9578,139,Larynx,Left iTBS,Cons,Clear,63,3,0,0.8298011000006229,1
9579,139,Larynx,Left iTBS,Cons,Clear,64,2,0,0.6681267000094521,1
9580,139,Larynx,Left iTBS,Cons,Clear,65,5,1,0.467969699995592,1
9581,139,Larynx,Left iTBS,Cons,Clear,66,4,1,0.5151957000052789,1
9582,139,Larynx,Left iTBS,Cons,Clear,67,2,0,0.631617299994105,1
9583,139,Larynx,Left iTBS,Cons,Clear,68,4,0,0.574138600000879,1
9584,139,Larynx,Left iTBS,Cons,Clear,69,5,1,0.55514559999574,1
9585,139,Larynx,Left iTBS,Cons,Clear,70,3,0,0.793158999993466,1
9586,139,Larynx,Left iTBS,Cons,Clear,71,1,0,0.770398599997861,1
9587,139,Larynx,Left iTBS,Cons,Clear,72,3,1,0.577047300001141,1
9588,139,Larynx,Left iTBS,Cons,Clear,73,3,1,0.7449145000136921,1
9589,139,Larynx,Left iTBS,Cons,Clear,74,4,1,0.600995499989949,1
9590,139,Larynx,Left iTBS,Cons,Clear,75,4,1,0.701877799991053,1
9591,139,Larynx,Left iTBS,Cons,Clear,76,4,1,0.5663929000002099,1
9592,139,Larynx,Left iTBS,Cons,Clear,77,2,0,0.5497918000037321,1
9593,139,Larynx,Left iTBS,Cons,Clear,78,3,1,0.6604740000038871,1
9594,139,Larynx,Left iTBS,Cons,Clear,79,3,0,1.23565489999601,1
9595,139,Larynx,Left iTBS,Cons,Clear,80,3,1,0.43145499999809495,1
9596,139,Larynx,Left iTBS,Cons,Clear,81,4,1,0.636125699995318,1
9597,139,Larynx,Left iTBS,Cons,Clear,82,2,0,0.44445480000285903,1
9598,139,Larynx,Left iTBS,Cons,Clear,83,1,0,0.43376830000488603,1
9599,139,Larynx,Left iTBS,Cons,Clear,84,3,1,0.928530599994701,1
9600,139,Larynx,Left iTBS,Cons,Clear,85,5,1,0.690036500003771,1
9601,139,Larynx,Left iTBS,Cons,Clear,86,3,1,0.917234499996994,1
9602,139,Larynx,Left iTBS,Cons,Clear,87,4,1,0.5754106999956999,1
9603,139,Larynx,Left iTBS,Cons,Clear,88,2,0,0.54110970000329,1
9604,139,Larynx,Left iTBS,Cons,Clear,89,3,1,0.672908699998516,1
9605,139,Larynx,Left iTBS,Cons,Clear,90,4,1,0.665251200000057,1
9606,139,Larynx,Left iTBS,Cons,Clear,91,3,0,0.8075472000055021,1
9607,139,Larynx,Left iTBS,Cons,Clear,92,1,0,0.6605345999996639,1
9608,139,Larynx,Left iTBS,Cons,Clear,93,2,0,0.638068200001726,1
9609,139,Larynx,Left iTBS,Cons,Clear,94,2,0,0.59398720000172,1
9610,139,Larynx,Left iTBS,Cons,Clear,95,3,1,0.7161902999941958,1
9611,139,Larynx,Left iTBS,Cons,Clear,96,1,0,0.604235599996173,1
9612,139,Larynx,Left iTBS,Cons,Clear,97,1,0,0.9306173999939351,1
9613,139,Larynx,Left iTBS,Cons,Clear,98,4,1,0.5104572000127521,1
9614,139,Larynx,Left iTBS,Cons,Clear,99,1,0,0.6641853000037371,1
9615,139,Larynx,Left iTBS,Cons,Clear,100,5,1,0.6074853000027359,1
9616,139,Larynx,Left iTBS,Cons,Clear,101,3,1,0.957055099992431,1
9617,139,Larynx,Left iTBS,Cons,Clear,102,4,1,0.6211828999948921,1
9618,139,Larynx,Left iTBS,Cons,Clear,103,5,1,0.612827199991443,1
9619,139,Larynx,Left iTBS,Cons,Clear,104,4,1,0.956892799993511,1
9620,139,Larynx,Left iTBS,Cons,Clear,105,2,0,0.49029420000442797,1
9621,139,Larynx,Left iTBS,Cons,Clear,106,5,1,0.697122899990063,1
9622,139,Larynx,Left iTBS,Cons,Clear,107,1,0,0.6046018000051839,1
9623,139,Larynx,Left iTBS,Cons,Clear,108,2,0,0.6411959999968531,1
9624,139,Larynx,Left iTBS,Cons,Clear,109,5,1,0.504072199997609,1
9625,139,Larynx,Left iTBS,Cons,Clear,110,4,1,0.516619499991066,1
9626,139,Larynx,Left iTBS,Cons,Clear,111,2,0,0.63551500000176,1
9627,139,Larynx,Left iTBS,Cons,Clear,112,3,0,0.725764399991021,1
9628,139,Larynx,Left iTBS,Cons,Clear,113,3,1,0.626408199997968,1
9629,139,Larynx,Left iTBS,Cons,Clear,114,5,1,0.544016999992891,1
9630,139,Larynx,Left iTBS,Cons,Clear,115,3,0,0.485853199992562,1
9631,139,Larynx,Left iTBS,Cons,Clear,116,4,1,0.40823030000319704,1
9632,139,Larynx,Left iTBS,Cons,Clear,117,2,0,0.4690211999986789,1
9633,139,Larynx,Left iTBS,Cons,Clear,118,5,1,0.4051895000011429,1
9634,139,Larynx,Left iTBS,Cons,Clear,119,3,1,0.632627500002855,1
9635,139,Larynx,Left iTBS,Cons,Clear,120,3,0,0.6120626000047199,1
9636,139,Larynx,Left iTBS,Cons,Clear,121,4,1,0.41062379999493703,1
9637,139,Larynx,Left iTBS,Cons,Clear,122,3,0,0.752658699988388,1
9638,139,Larynx,Left iTBS,Cons,Clear,123,5,1,0.42790389999572703,1
9639,139,Larynx,Left iTBS,Cons,Clear,124,5,1,0.6841709000000259,1
9640,139,Larynx,Left iTBS,Cons,Clear,125,1,0,0.45127499999944104,1
9641,139,Larynx,Left iTBS,Cons,Clear,126,4,1,0.692848999999114,1
9642,139,Larynx,Left iTBS,Cons,Clear,127,1,0,0.461823399993591,1
9643,139,Larynx,Left iTBS,Cons,Clear,128,2,0,0.48458980000577895,1
9644,139,Larynx,Left iTBS,Cons,Clear,129,3,1,0.457652900004177,1
9645,139,Larynx,Left iTBS,Cons,Clear,130,1,0,0.5952044999867211,1
9646,139,Larynx,Left iTBS,Cons,Clear,131,1,0,0.6470610999967901,1
9647,139,Larynx,Left iTBS,Cons,Clear,132,5,1,0.42595560000336297,1
9648,139,Larynx,Left iTBS,Cons,Clear,133,3,1,0.6299176000029549,1
9649,139,Larynx,Left iTBS,Cons,Clear,134,1,0,0.524898999996367,1
9650,139,Larynx,Left iTBS,Cons,Clear,135,2,1,0.579358100003446,1
9651,139,Larynx,Left iTBS,Cons,Clear,136,2,1,1.02291110000806,1
9652,139,Larynx,Left iTBS,Cons,Clear,137,3,0,0.6332876000087709,1
9653,139,Larynx,Left iTBS,Cons,Clear,138,4,1,0.451941499995883,1
9654,139,Larynx,Left iTBS,Cons,Clear,139,2,0,0.6580609999946321,1
9655,139,Larynx,Left iTBS,Cons,Clear,140,4,1,0.66800439999497,1
9656,139,Larynx,Left iTBS,Cons,Clear,141,3,1,0.6895680000015999,1
9657,139,Larynx,Left iTBS,Cons,Clear,142,1,0,0.45490520000748796,1
9658,139,Larynx,Left iTBS,Cons,Clear,143,3,1,0.595748199993977,1
9659,139,Larynx,Left iTBS,Cons,Clear,144,4,1,0.632389899998088,1
9660,139,Larynx,Left iTBS,Cons,Clear,145,2,0,0.5672237000108,1
9661,139,Larynx,Left iTBS,Cons,Clear,146,2,0,0.659125999998651,1
9662,139,Larynx,Left iTBS,Cons,Clear,147,2,0,0.5506158000061989,1
9663,139,Larynx,Left iTBS,Cons,Clear,148,2,0,0.6351289000012911,1
9664,139,Larynx,Left iTBS,Cons,Clear,149,5,1,0.432936099998187,1
9665,139,Larynx,Left iTBS,Cons,Clear,150,4,1,0.479905299987877,1
9666,139,Larynx,Left iTBS,Cons,Clear,151,3,0,0.7164344000048001,1
9667,139,Larynx,Left iTBS,Cons,Clear,152,4,1,0.5280870999995391,1
9668,139,Larynx,Left iTBS,Cons,Clear,153,4,1,0.49443289999908296,1
9669,139,Larynx,Left iTBS,Cons,Clear,154,3,1,0.8315623000089541,1
9670,139,Larynx,Left iTBS,Cons,Clear,155,5,0,0.6504740999953361,1
9671,139,Larynx,Left iTBS,Cons,Clear,156,3,0,0.7309472000051759,1
12012,139,Larynx,Sham,Cons,Clear,1,3,1,0.968329900002573,1
12013,139,Larynx,Sham,Cons,Clear,2,4,1,0.601398500002688,1
12014,139,Larynx,Sham,Cons,Clear,3,2,0,0.7246889000016379,1
12015,139,Larynx,Sham,Cons,Clear,4,5,1,0.528023799997754,1
12016,139,Larynx,Sham,Cons,Clear,5,2,0,0.524122599999828,1
12017,139,Larynx,Sham,Cons,Clear,6,3,1,0.53264240000135,1
12018,139,Larynx,Sham,Cons,Clear,7,2,0,0.805061099999875,1
12019,139,Larynx,Sham,Cons,Clear,8,5,1,0.552242999998271,1
12020,139,Larynx,Sham,Cons,Clear,9,1,0,0.654955399993923,1
12021,139,Larynx,Sham,Cons,Clear,10,3,1,0.602785699993547,1
12022,139,Larynx,Sham,Cons,Clear,11,4,1,0.545939299998281,1
12023,139,Larynx,Sham,Cons,Clear,12,3,1,0.60819420000189,1
12024,139,Larynx,Sham,Cons,Clear,13,5,1,0.8143467999980201,1
12025,139,Larynx,Sham,Cons,Clear,14,4,1,0.5928856000027739,1
12026,139,Larynx,Sham,Cons,Clear,15,4,1,0.5571465000029999,1
12027,139,Larynx,Sham,Cons,Clear,16,2,0,0.556982399997651,1
12028,139,Larynx,Sham,Cons,Clear,17,4,1,0.559736800001701,1
12029,139,Larynx,Sham,Cons,Clear,18,3,1,0.62266030000319,1
12030,139,Larynx,Sham,Cons,Clear,19,1,0,0.6694419999985259,1
12031,139,Larynx,Sham,Cons,Clear,20,2,0,0.584172700000636,1
12032,139,Larynx,Sham,Cons,Clear,21,3,0,0.88652309999452,1
12033,139,Larynx,Sham,Cons,Clear,22,5,1,0.48325900000054406,1
12034,139,Larynx,Sham,Cons,Clear,23,4,1,0.4426711000051,1
12035,139,Larynx,Sham,Cons,Clear,24,1,0,0.560408199999074,1
12036,139,Larynx,Sham,Cons,Clear,25,5,1,0.609654899999441,1
12037,139,Larynx,Sham,Cons,Clear,26,2,0,0.550778199998604,1
12038,139,Larynx,Sham,Cons,Clear,27,3,1,0.506458200005,1
12039,139,Larynx,Sham,Cons,Clear,28,1,0,0.510163399994781,1
12040,139,Larynx,Sham,Cons,Clear,29,4,1,0.4519620999999461,1
12041,139,Larynx,Sham,Cons,Clear,30,1,0,0.584859400005371,1
12042,139,Larynx,Sham,Cons,Clear,31,1,0,0.6216775000066259,1
12043,139,Larynx,Sham,Cons,Clear,32,3,1,0.68018039999879,1
12044,139,Larynx,Sham,Cons,Clear,33,5,1,0.495297699999355,1
12045,139,Larynx,Sham,Cons,Clear,34,2,0,0.689144500000111,1
12046,139,Larynx,Sham,Cons,Clear,35,4,1,0.6693487000011371,1
12047,139,Larynx,Sham,Cons,Clear,36,2,0,0.6526125000018511,1
12048,139,Larynx,Sham,Cons,Clear,37,3,1,1.09362240000337,1
12049,139,Larynx,Sham,Cons,Clear,38,3,1,0.7711742999963459,1
12050,139,Larynx,Sham,Cons,Clear,39,3,0,0.5946065999960409,1
12051,139,Larynx,Sham,Cons,Clear,40,2,0,0.921949700001278,1
12052,139,Larynx,Sham,Cons,Clear,41,4,1,0.76539660000708,1
12053,139,Larynx,Sham,Cons,Clear,42,4,1,0.645663800001785,1
12054,139,Larynx,Sham,Cons,Clear,43,2,0,0.64778970000043,1
12055,139,Larynx,Sham,Cons,Clear,44,3,1,0.7205979999998822,1
12056,139,Larynx,Sham,Cons,Clear,45,3,1,0.874158899998292,1
12057,139,Larynx,Sham,Cons,Clear,46,1,0,0.659968100000697,1
12058,139,Larynx,Sham,Cons,Clear,47,4,0,0.7264058000000658,1
12059,139,Larynx,Sham,Cons,Clear,48,3,1,0.641113000005134,1
12060,139,Larynx,Sham,Cons,Clear,49,2,0,0.7122259000025221,1
12061,139,Larynx,Sham,Cons,Clear,50,5,1,0.7409410000036591,1
12062,139,Larynx,Sham,Cons,Clear,51,1,0,0.8751555999988342,1
12063,139,Larynx,Sham,Cons,Clear,52,5,1,1.0468858000022,1
12064,139,Larynx,Sham,Cons,Clear,53,4,1,0.8014314999963968,1
12065,139,Larynx,Sham,Cons,Clear,54,3,0,0.8727330999972759,1
12066,139,Larynx,Sham,Cons,Clear,55,1,0,0.8395368999990749,1
12067,139,Larynx,Sham,Cons,Clear,56,5,1,0.8527585999981969,1
12068,139,Larynx,Sham,Cons,Clear,57,3,1,0.835296999997809,1
12069,139,Larynx,Sham,Cons,Clear,58,4,1,0.6848069000043321,1
12070,139,Larynx,Sham,Cons,Clear,59,3,0,1.16964519999601,1
12071,139,Larynx,Sham,Cons,Clear,60,2,0,0.783213599999726,1
12072,139,Larynx,Sham,Cons,Clear,61,3,1,0.7047439000016309,1
12073,139,Larynx,Sham,Cons,Clear,62,3,1,0.877045199995337,1
12074,139,Larynx,Sham,Cons,Clear,63,2,0,0.943305599997984,1
12075,139,Larynx,Sham,Cons,Clear,64,5,1,1.03234519999387,1
12076,139,Larynx,Sham,Cons,Clear,65,5,1,0.9185557999953741,1
12077,139,Larynx,Sham,Cons,Clear,66,1,0,0.681786300003296,1
12078,139,Larynx,Sham,Cons,Clear,67,3,1,0.714188399993873,1
12079,139,Larynx,Sham,Cons,Clear,68,4,1,0.9618466999963861,1
12080,139,Larynx,Sham,Cons,Clear,69,2,0,0.546753899994656,1
12081,139,Larynx,Sham,Cons,Clear,70,3,0,0.900881900000968,1
12082,139,Larynx,Sham,Cons,Clear,71,3,1,0.909773599996697,1
12083,139,Larynx,Sham,Cons,Clear,72,2,0,0.529590099999041,1
12084,139,Larynx,Sham,Cons,Clear,73,1,0,0.596386299999722,1
12085,139,Larynx,Sham,Cons,Clear,74,4,1,0.762997999998333,1
12086,139,Larynx,Sham,Cons,Clear,75,5,1,0.63247820000106,1
12087,139,Larynx,Sham,Cons,Clear,76,1,0,0.867000899997947,1
12088,139,Larynx,Sham,Cons,Clear,77,2,0,0.632863600003475,1
12089,139,Larynx,Sham,Cons,Clear,78,4,1,0.623124799996731,1
12090,139,Larynx,Sham,Cons,Clear,79,3,1,0.632447899995896,1
12091,139,Larynx,Sham,Cons,Clear,80,4,1,0.557502900002874,1
12092,139,Larynx,Sham,Cons,Clear,81,2,0,0.802079699999013,1
12093,139,Larynx,Sham,Cons,Clear,82,1,0,0.624314900000172,1
12094,139,Larynx,Sham,Cons,Clear,83,1,0,0.555988600004639,1
12095,139,Larynx,Sham,Cons,Clear,84,3,1,0.628177600003255,1
12096,139,Larynx,Sham,Cons,Clear,85,3,1,0.824448700004723,1
12097,139,Larynx,Sham,Cons,Clear,86,5,1,0.566197799998918,1
12098,139,Larynx,Sham,Cons,Clear,87,5,0,0.6159310999937591,1
12099,139,Larynx,Sham,Cons,Clear,88,3,1,0.7643179000006061,1
12100,139,Larynx,Sham,Cons,Clear,89,3,0,0.993449099994905,1
12101,139,Larynx,Sham,Cons,Clear,90,3,1,0.51397839999845,1
12102,139,Larynx,Sham,Cons,Clear,91,4,1,0.731450599996606,1
12103,139,Larynx,Sham,Cons,Clear,92,2,0,0.609009799998603,1
12104,139,Larynx,Sham,Cons,Clear,93,3,1,0.9765750000005942,1
12105,139,Larynx,Sham,Cons,Clear,94,4,1,0.512596200002008,1
12106,139,Larynx,Sham,Cons,Clear,95,5,1,0.5617171999983841,1
12107,139,Larynx,Sham,Cons,Clear,96,4,0,0.8747965000002299,1
12108,139,Larynx,Sham,Cons,Clear,97,5,1,0.671839799993904,1
12109,139,Larynx,Sham,Cons,Clear,98,3,0,0.647811000002548,1
12110,139,Larynx,Sham,Cons,Clear,99,2,0,0.7102510999975491,1
12111,139,Larynx,Sham,Cons,Clear,100,3,1,0.62232010000298,1
12112,139,Larynx,Sham,Cons,Clear,101,4,1,0.7644982000056191,1
12113,139,Larynx,Sham,Cons,Clear,102,1,0,0.5711384000023829,1
12114,139,Larynx,Sham,Cons,Clear,103,1,0,0.618037100000947,1
12115,139,Larynx,Sham,Cons,Clear,104,2,0,0.8629686999993279,1
12116,139,Larynx,Sham,Cons,Clear,105,2,0,0.792755199996463,1
12117,139,Larynx,Sham,Cons,Clear,106,5,1,0.7874248999942208,1
12118,139,Larynx,Sham,Cons,Clear,107,4,1,0.552532299996528,1
12119,139,Larynx,Sham,Cons,Clear,108,2,0,0.631667300003755,1
12120,139,Larynx,Sham,Cons,Clear,109,4,1,0.922702200005006,1
12121,139,Larynx,Sham,Cons,Clear,110,2,0,0.7087833999976278,1
12122,139,Larynx,Sham,Cons,Clear,111,3,0,1.16422010000679,1
12123,139,Larynx,Sham,Cons,Clear,112,1,0,0.704203200002667,1
12124,139,Larynx,Sham,Cons,Clear,113,1,1,0.670949499995913,1
12125,139,Larynx,Sham,Cons,Clear,114,3,1,0.7588137999991891,1
12126,139,Larynx,Sham,Cons,Clear,115,4,1,0.832047700001567,1
12127,139,Larynx,Sham,Cons,Clear,116,2,0,0.546194200003811,1
12128,139,Larynx,Sham,Cons,Clear,117,5,1,0.5957711999944879,1
12129,139,Larynx,Sham,Cons,Clear,118,3,1,0.9443911999987901,1
12130,139,Larynx,Sham,Cons,Clear,119,3,1,0.847301300003892,1
12131,139,Larynx,Sham,Cons,Clear,120,2,0,0.8339955999981609,1
12132,139,Larynx,Sham,Cons,Clear,121,1,0,0.598437900000135,1
12133,139,Larynx,Sham,Cons,Clear,122,3,1,1.30916240000079,1
12134,139,Larynx,Sham,Cons,Clear,123,3,1,0.68555500000366,1
12135,139,Larynx,Sham,Cons,Clear,124,2,0,0.5996263000051839,1
12136,139,Larynx,Sham,Cons,Clear,125,1,0,0.5475564999942439,1
12137,139,Larynx,Sham,Cons,Clear,126,4,1,0.726198800002749,1
12138,139,Larynx,Sham,Cons,Clear,127,4,1,0.641467000001285,1
12139,139,Larynx,Sham,Cons,Clear,128,5,1,0.6606967000043371,1
12140,139,Larynx,Sham,Cons,Clear,129,5,1,0.6741419000027239,1
12141,139,Larynx,Sham,Cons,Clear,130,5,1,0.6691958000010351,1
12142,139,Larynx,Sham,Cons,Clear,131,3,1,1.08543189999909,1
12143,139,Larynx,Sham,Cons,Clear,132,1,0,0.600802499997371,1
12144,139,Larynx,Sham,Cons,Clear,133,1,0,0.526652100001229,1
12145,139,Larynx,Sham,Cons,Clear,134,2,0,0.760280599999533,1
12146,139,Larynx,Sham,Cons,Clear,135,2,0,0.6936103999978511,1
12147,139,Larynx,Sham,Cons,Clear,136,2,0,0.8233363999970609,1
12148,139,Larynx,Sham,Cons,Clear,137,5,1,0.553122699995583,1
12149,139,Larynx,Sham,Cons,Clear,138,5,1,0.46524990000034494,1
12150,139,Larynx,Sham,Cons,Clear,139,4,1,0.655148500001815,1
12151,139,Larynx,Sham,Cons,Clear,140,4,1,0.7699772999985731,1
12152,139,Larynx,Sham,Cons,Clear,141,2,0,0.6410217000011469,1
12153,139,Larynx,Sham,Cons,Clear,142,2,0,0.6459092000004599,1
12154,139,Larynx,Sham,Cons,Clear,143,4,1,0.6066567000016221,1
12155,139,Larynx,Sham,Cons,Clear,144,5,1,0.632545000000391,1
12156,139,Larynx,Sham,Cons,Clear,145,3,0,1.10120779999852,1
12157,139,Larynx,Sham,Cons,Clear,146,3,1,0.695023399995989,1
12158,139,Larynx,Sham,Cons,Clear,147,3,1,0.5998284000015699,1
12159,139,Larynx,Sham,Cons,Clear,148,3,1,0.711556299997028,1
12160,139,Larynx,Sham,Cons,Clear,149,3,1,0.7485393000024492,1
12161,139,Larynx,Sham,Cons,Clear,150,4,1,0.630388899997342,1
12162,139,Larynx,Sham,Cons,Clear,151,4,1,0.6055560999957379,1
12163,139,Larynx,Sham,Cons,Clear,152,4,1,0.6574451999986201,1
12164,139,Larynx,Sham,Cons,Clear,153,1,0,0.5648460000011261,1
12165,139,Larynx,Sham,Cons,Clear,154,3,1,0.45106620000296993,1
12166,139,Larynx,Sham,Cons,Clear,155,1,0,0.7268679999979208,1
12167,139,Larynx,Sham,Cons,Clear,156,2,1,0.7348360999967549,1
12636,142,Larynx,Left iTBS,Cons,Clear,1,2,0,0.603512500005309,1
12637,142,Larynx,Left iTBS,Cons,Clear,2,3,1,0.481009500043001,1
12638,142,Larynx,Left iTBS,Cons,Clear,3,5,1,0.44752500002505297,1
12639,142,Larynx,Left iTBS,Cons,Clear,4,5,1,0.45482260000426294,1
12640,142,Larynx,Left iTBS,Cons,Clear,5,2,1,0.5063861000235189,1
12641,142,Larynx,Left iTBS,Cons,Clear,6,4,1,0.523914099961985,1
12642,142,Larynx,Left iTBS,Cons,Clear,7,1,0,0.44014379999134706,1
12643,142,Larynx,Left iTBS,Cons,Clear,8,2,1,0.542372500000056,1
12644,142,Larynx,Left iTBS,Cons,Clear,9,3,1,0.5952005999861291,1
12645,142,Larynx,Left iTBS,Cons,Clear,10,3,1,0.537186700035818,1
12646,142,Larynx,Left iTBS,Cons,Clear,11,1,0,0.458429599995725,1
12647,142,Larynx,Left iTBS,Cons,Clear,12,4,1,0.45304589997977,1
12648,142,Larynx,Left iTBS,Cons,Clear,13,3,1,0.5502237999462521,1
12649,142,Larynx,Left iTBS,Cons,Clear,14,3,0,0.43556150002405,1
12650,142,Larynx,Left iTBS,Cons,Clear,15,1,0,0.5969679999980141,1
12651,142,Larynx,Left iTBS,Cons,Clear,16,2,1,0.391689000010956,1
12652,142,Larynx,Left iTBS,Cons,Clear,17,3,1,0.590571000007913,1
12653,142,Larynx,Left iTBS,Cons,Clear,18,5,1,0.693074100010563,1
12654,142,Larynx,Left iTBS,Cons,Clear,19,5,1,0.5542001000139859,1
12655,142,Larynx,Left iTBS,Cons,Clear,20,3,1,0.5494957999908371,1
12656,142,Larynx,Left iTBS,Cons,Clear,21,4,1,0.529263700009324,1
12657,142,Larynx,Left iTBS,Cons,Clear,22,1,0,0.5724488999694589,1
12658,142,Larynx,Left iTBS,Cons,Clear,23,3,1,0.441115199995693,1
12659,142,Larynx,Left iTBS,Cons,Clear,24,5,1,0.616220000025351,1
12660,142,Larynx,Left iTBS,Cons,Clear,25,2,0,0.589109599997755,1
12661,142,Larynx,Left iTBS,Cons,Clear,26,3,1,0.413937500037719,1
12662,142,Larynx,Left iTBS,Cons,Clear,27,4,1,0.515145700017456,1
12663,142,Larynx,Left iTBS,Cons,Clear,28,2,0,0.7173676000093109,1
12664,142,Larynx,Left iTBS,Cons,Clear,29,4,1,0.520197300007567,1
12665,142,Larynx,Left iTBS,Cons,Clear,30,4,1,0.572731699969154,1
12666,142,Larynx,Left iTBS,Cons,Clear,31,3,1,0.6041904000448989,1
12667,142,Larynx,Left iTBS,Cons,Clear,32,4,1,0.492846200009808,1
12668,142,Larynx,Left iTBS,Cons,Clear,33,5,1,0.5135618000058461,1
12669,142,Larynx,Left iTBS,Cons,Clear,34,1,0,0.636329700006172,1
12670,142,Larynx,Left iTBS,Cons,Clear,35,4,1,0.401832500007004,1
12671,142,Larynx,Left iTBS,Cons,Clear,36,2,0,0.696570799977053,1
12672,142,Larynx,Left iTBS,Cons,Clear,37,2,1,0.5632287999615071,1
12673,142,Larynx,Left iTBS,Cons,Clear,38,3,1,0.5312712999875661,1
12674,142,Larynx,Left iTBS,Cons,Clear,39,1,0,0.38073619996430397,1
12675,142,Larynx,Left iTBS,Cons,Clear,40,3,1,0.38460669998312397,1
12676,142,Larynx,Left iTBS,Cons,Clear,41,3,1,0.540713099995628,1
12677,142,Larynx,Left iTBS,Cons,Clear,42,5,1,0.49868449999485204,1
12678,142,Larynx,Left iTBS,Cons,Clear,43,1,0,0.477372800000012,1
12679,142,Larynx,Left iTBS,Cons,Clear,44,2,1,0.43160910002188796,1
12680,142,Larynx,Left iTBS,Cons,Clear,45,3,1,0.5686950000235811,1
12681,142,Larynx,Left iTBS,Cons,Clear,46,2,1,0.7762288000085391,1
12682,142,Larynx,Left iTBS,Cons,Clear,47,2,1,0.9209021999849941,1
12683,142,Larynx,Left iTBS,Cons,Clear,48,5,1,0.5764370000106279,1
12684,142,Larynx,Left iTBS,Cons,Clear,49,4,1,0.522518399986438,1
12685,142,Larynx,Left iTBS,Cons,Clear,50,5,1,0.559876100043766,1
12686,142,Larynx,Left iTBS,Cons,Clear,51,1,0,0.4759748999495061,1
12687,142,Larynx,Left iTBS,Cons,Clear,52,1,0,0.5665065000066529,1
12688,142,Larynx,Left iTBS,Cons,Clear,53,4,1,0.416442300018389,1
12689,142,Larynx,Left iTBS,Cons,Clear,54,5,1,0.5776207000017171,1
12690,142,Larynx,Left iTBS,Cons,Clear,55,2,0,0.7051303999614901,1
12691,142,Larynx,Left iTBS,Cons,Clear,56,4,1,0.513222099980339,1
12692,142,Larynx,Left iTBS,Cons,Clear,57,4,1,0.6467068999772889,1
12693,142,Larynx,Left iTBS,Cons,Clear,58,3,1,0.538620399951469,1
12694,142,Larynx,Left iTBS,Cons,Clear,59,3,1,0.645774399978109,1
12695,142,Larynx,Left iTBS,Cons,Clear,60,2,0,0.512537200003862,1
12696,142,Larynx,Left iTBS,Cons,Clear,61,1,0,0.535673699981999,1
12697,142,Larynx,Left iTBS,Cons,Clear,62,4,1,0.564538899983745,1
12698,142,Larynx,Left iTBS,Cons,Clear,63,3,1,0.601480099954642,1
12699,142,Larynx,Left iTBS,Cons,Clear,64,3,1,0.622777399956249,1
12700,142,Larynx,Left iTBS,Cons,Clear,65,3,1,0.5070573000120929,1
12701,142,Larynx,Left iTBS,Cons,Clear,66,1,0,0.532945399987511,1
12702,142,Larynx,Left iTBS,Cons,Clear,67,5,1,0.49340380000649,1
12703,142,Larynx,Left iTBS,Cons,Clear,68,2,0,0.6259313999908039,1
12704,142,Larynx,Left iTBS,Cons,Clear,69,4,1,0.589300799998455,1
12705,142,Larynx,Left iTBS,Cons,Clear,70,2,0,0.7375683999853209,1
12706,142,Larynx,Left iTBS,Cons,Clear,71,3,1,0.446538200019859,1
12707,142,Larynx,Left iTBS,Cons,Clear,72,3,1,0.6157531000208111,1
12708,142,Larynx,Left iTBS,Cons,Clear,73,2,0,0.6433830999885689,1
12709,142,Larynx,Left iTBS,Cons,Clear,74,4,1,0.426649000030011,1
12710,142,Larynx,Left iTBS,Cons,Clear,75,3,1,0.618231400032528,1
12711,142,Larynx,Left iTBS,Cons,Clear,76,5,1,0.519921300001442,1
12712,142,Larynx,Left iTBS,Cons,Clear,77,1,1,0.668173499987461,1
12713,142,Larynx,Left iTBS,Cons,Clear,78,4,1,0.49419040000066206,1
12714,142,Larynx,Left iTBS,Cons,Clear,79,5,1,0.691241699969396,1
12715,142,Larynx,Left iTBS,Cons,Clear,80,3,1,0.735342399973888,1
12716,142,Larynx,Left iTBS,Cons,Clear,81,3,1,0.6896765999845229,1
12717,142,Larynx,Left iTBS,Cons,Clear,82,4,1,0.652130100002978,1
12718,142,Larynx,Left iTBS,Cons,Clear,83,3,1,0.581236799946055,1
12719,142,Larynx,Left iTBS,Cons,Clear,84,4,1,0.6026495000114661,1
12720,142,Larynx,Left iTBS,Cons,Clear,85,1,0,0.470882199995685,1
12721,142,Larynx,Left iTBS,Cons,Clear,86,3,1,0.442535699985456,1
12722,142,Larynx,Left iTBS,Cons,Clear,87,2,0,0.561064199951943,1
12723,142,Larynx,Left iTBS,Cons,Clear,88,1,0,0.62814599997364,1
12724,142,Larynx,Left iTBS,Cons,Clear,89,4,1,0.5905942000099461,1
12725,142,Larynx,Left iTBS,Cons,Clear,90,3,1,0.619139899965376,1
12726,142,Larynx,Left iTBS,Cons,Clear,91,3,1,0.6067355000413951,1
12727,142,Larynx,Left iTBS,Cons,Clear,92,1,0,0.422795800026506,1
12728,142,Larynx,Left iTBS,Cons,Clear,93,5,1,0.436565899988636,1
12729,142,Larynx,Left iTBS,Cons,Clear,94,2,1,0.603860000032,1
12730,142,Larynx,Left iTBS,Cons,Clear,95,1,0,0.822450600040611,1
12731,142,Larynx,Left iTBS,Cons,Clear,96,4,1,0.5893628000048922,1
12732,142,Larynx,Left iTBS,Cons,Clear,97,4,1,0.7613244000240229,1
12733,142,Larynx,Left iTBS,Cons,Clear,98,2,0,0.7241947999573309,1
12734,142,Larynx,Left iTBS,Cons,Clear,99,2,0,0.583459399989806,1
12735,142,Larynx,Left iTBS,Cons,Clear,100,4,1,0.427163000043947,1
12736,142,Larynx,Left iTBS,Cons,Clear,101,3,1,0.626851399953011,1
12737,142,Larynx,Left iTBS,Cons,Clear,102,2,0,0.762252100044861,1
12738,142,Larynx,Left iTBS,Cons,Clear,103,3,1,0.7469815000076779,1
12739,142,Larynx,Left iTBS,Cons,Clear,104,3,1,0.6479570000083189,1
12740,142,Larynx,Left iTBS,Cons,Clear,105,5,1,0.602239300031215,1
12741,142,Larynx,Left iTBS,Cons,Clear,106,2,0,0.593285000009928,1
12742,142,Larynx,Left iTBS,Cons,Clear,107,2,0,0.6790034999721679,1
12743,142,Larynx,Left iTBS,Cons,Clear,108,4,1,0.571835500013549,1
12744,142,Larynx,Left iTBS,Cons,Clear,109,5,1,0.6214314000098969,1
12745,142,Larynx,Left iTBS,Cons,Clear,110,1,0,0.633796699985396,1
12746,142,Larynx,Left iTBS,Cons,Clear,111,5,1,0.473720400012098,1
12747,142,Larynx,Left iTBS,Cons,Clear,112,1,0,0.562197799968999,1
12748,142,Larynx,Left iTBS,Cons,Clear,113,4,1,0.410994399979245,1
12749,142,Larynx,Left iTBS,Cons,Clear,114,3,1,0.633445000043139,1
12750,142,Larynx,Left iTBS,Cons,Clear,115,2,0,0.55753570003435,1
12751,142,Larynx,Left iTBS,Cons,Clear,116,3,1,0.603857100009918,1
12752,142,Larynx,Left iTBS,Cons,Clear,117,5,1,0.578098099969793,1
12753,142,Larynx,Left iTBS,Cons,Clear,118,4,1,0.6433600000455041,1
12754,142,Larynx,Left iTBS,Cons,Clear,119,5,1,0.695919599966146,1
12755,142,Larynx,Left iTBS,Cons,Clear,120,2,0,0.505786499998067,1
12756,142,Larynx,Left iTBS,Cons,Clear,121,3,0,0.760748100001365,1
12757,142,Larynx,Left iTBS,Cons,Clear,122,4,1,0.45470950001617894,1
12758,142,Larynx,Left iTBS,Cons,Clear,123,4,1,0.437471100012772,1
12759,142,Larynx,Left iTBS,Cons,Clear,124,2,0,0.542987799970433,1
12760,142,Larynx,Left iTBS,Cons,Clear,125,2,0,0.731594899960328,1
12761,142,Larynx,Left iTBS,Cons,Clear,126,3,1,0.541521399980411,1
12762,142,Larynx,Left iTBS,Cons,Clear,127,5,1,0.547966299986001,1
12763,142,Larynx,Left iTBS,Cons,Clear,128,1,0,0.540695399977267,1
12764,142,Larynx,Left iTBS,Cons,Clear,129,4,1,0.41080409998539796,1
12765,142,Larynx,Left iTBS,Cons,Clear,130,3,1,0.589349099958781,1
12766,142,Larynx,Left iTBS,Cons,Clear,131,1,0,0.658368700009305,1
12767,142,Larynx,Left iTBS,Cons,Clear,132,3,1,0.5635227999882769,1
12768,142,Larynx,Left iTBS,Cons,Clear,133,3,1,0.670630399952643,1
12769,142,Larynx,Left iTBS,Cons,Clear,134,1,0,0.585922600002959,1
12770,142,Larynx,Left iTBS,Cons,Clear,135,2,0,0.674199599947315,1
12771,142,Larynx,Left iTBS,Cons,Clear,136,5,1,0.4445491000078621,1
12772,142,Larynx,Left iTBS,Cons,Clear,137,5,1,0.408649199991487,1
12773,142,Larynx,Left iTBS,Cons,Clear,138,4,1,0.582321299996693,1
12774,142,Larynx,Left iTBS,Cons,Clear,139,3,0,0.790356900019106,1
12775,142,Larynx,Left iTBS,Cons,Clear,140,3,1,0.46870140003738897,1
12776,142,Larynx,Left iTBS,Cons,Clear,141,5,1,0.5505979000008671,1
12777,142,Larynx,Left iTBS,Cons,Clear,142,4,1,0.522060199989937,1
12778,142,Larynx,Left iTBS,Cons,Clear,143,3,0,0.609258099982981,1
12779,142,Larynx,Left iTBS,Cons,Clear,144,2,0,0.660654400009662,1
12780,142,Larynx,Left iTBS,Cons,Clear,145,4,1,0.5470596000086521,1
12781,142,Larynx,Left iTBS,Cons,Clear,146,1,0,0.7450969000346959,1
12782,142,Larynx,Left iTBS,Cons,Clear,147,1,0,0.6206210000091229,1
12783,142,Larynx,Left iTBS,Cons,Clear,148,3,1,0.49169759999495,1
12784,142,Larynx,Left iTBS,Cons,Clear,149,2,0,0.618886500014924,1
12785,142,Larynx,Left iTBS,Cons,Clear,150,1,0,0.5941661999677309,1
12786,142,Larynx,Left iTBS,Cons,Clear,151,5,1,0.43710039998404704,1
12787,142,Larynx,Left iTBS,Cons,Clear,152,2,1,0.558537399978377,1
12788,142,Larynx,Left iTBS,Cons,Clear,153,4,1,0.513162299990654,1
12789,142,Larynx,Left iTBS,Cons,Clear,154,3,1,0.9336250000051222,1
12790,142,Larynx,Left iTBS,Cons,Clear,155,3,1,0.7776343000004999,1
12791,142,Larynx,Left iTBS,Cons,Clear,156,2,0,0.5081288999645039,1
15132,142,Larynx,Sham,Cons,Clear,1,3,1,0.556075799999235,1
15133,142,Larynx,Sham,Cons,Clear,2,4,1,0.6121361000004979,1
15134,142,Larynx,Sham,Cons,Clear,3,4,1,0.461367300002166,1
15135,142,Larynx,Sham,Cons,Clear,4,5,1,0.542899300002318,1
15136,142,Larynx,Sham,Cons,Clear,5,4,1,0.508632799999759,1
15137,142,Larynx,Sham,Cons,Clear,6,4,1,0.566834400000516,1
15138,142,Larynx,Sham,Cons,Clear,7,5,1,0.532555499998125,1
15139,142,Larynx,Sham,Cons,Clear,8,5,1,1.14910210000016,1
15140,142,Larynx,Sham,Cons,Clear,9,1,0,0.679281099997752,1
15141,142,Larynx,Sham,Cons,Clear,10,3,1,0.7212709000013999,1
15142,142,Larynx,Sham,Cons,Clear,11,5,1,0.580508500002907,1
15143,142,Larynx,Sham,Cons,Clear,12,2,0,0.7713614999993299,1
15144,142,Larynx,Sham,Cons,Clear,13,3,0,0.780464900002698,1
15145,142,Larynx,Sham,Cons,Clear,14,1,0,0.503642100000434,1
15146,142,Larynx,Sham,Cons,Clear,15,1,0,0.522848199998407,1
15147,142,Larynx,Sham,Cons,Clear,16,2,1,0.5671289999991129,1
15148,142,Larynx,Sham,Cons,Clear,17,3,1,0.731044000000111,1
15149,142,Larynx,Sham,Cons,Clear,18,1,0,0.47095660000195505,1
15150,142,Larynx,Sham,Cons,Clear,19,3,1,0.641048100002081,1
15151,142,Larynx,Sham,Cons,Clear,20,3,1,0.6539682000002359,1
15152,142,Larynx,Sham,Cons,Clear,21,3,0,0.71960559999934,1
15153,142,Larynx,Sham,Cons,Clear,22,4,1,0.560139000001072,1
15154,142,Larynx,Sham,Cons,Clear,23,4,1,0.5050655000013651,1
15155,142,Larynx,Sham,Cons,Clear,24,5,1,0.646535399999266,1
15156,142,Larynx,Sham,Cons,Clear,25,3,0,0.5915338999984671,1
15157,142,Larynx,Sham,Cons,Clear,26,3,1,0.628899800001818,1
15158,142,Larynx,Sham,Cons,Clear,27,3,0,0.557101800000964,1
15159,142,Larynx,Sham,Cons,Clear,28,1,0,0.660137099999702,1
15160,142,Larynx,Sham,Cons,Clear,29,4,1,0.543300100001943,1
15161,142,Larynx,Sham,Cons,Clear,30,2,0,0.502072499999485,1
15162,142,Larynx,Sham,Cons,Clear,31,2,0,0.844994499999302,1
15163,142,Larynx,Sham,Cons,Clear,32,3,1,0.529799100000673,1
15164,142,Larynx,Sham,Cons,Clear,33,4,1,0.7255267000000459,1
15165,142,Larynx,Sham,Cons,Clear,34,5,1,0.5707524999997989,1
15166,142,Larynx,Sham,Cons,Clear,35,2,0,0.548212199999398,1
15167,142,Larynx,Sham,Cons,Clear,36,2,0,0.63633149999805,1
15168,142,Larynx,Sham,Cons,Clear,37,2,1,0.5703360000006801,1
15169,142,Larynx,Sham,Cons,Clear,38,1,0,0.730581299998448,1
15170,142,Larynx,Sham,Cons,Clear,39,2,0,0.7509396999994351,1
15171,142,Larynx,Sham,Cons,Clear,40,4,1,0.4697431999993571,1
15172,142,Larynx,Sham,Cons,Clear,41,3,1,0.9758123999999949,1
15173,142,Larynx,Sham,Cons,Clear,42,4,1,0.6469060000017629,1
15174,142,Larynx,Sham,Cons,Clear,43,1,0,0.638489900000422,1
15175,142,Larynx,Sham,Cons,Clear,44,1,0,0.505169000000024,1
15176,142,Larynx,Sham,Cons,Clear,45,2,0,0.6328907000024631,1
15177,142,Larynx,Sham,Cons,Clear,46,4,1,0.9570526999996221,1
15178,142,Larynx,Sham,Cons,Clear,47,4,0,0.687394500000664,1
15179,142,Larynx,Sham,Cons,Clear,48,5,1,0.939267999998265,1
15180,142,Larynx,Sham,Cons,Clear,49,4,1,0.572082099999534,1
15181,142,Larynx,Sham,Cons,Clear,50,2,0,0.5087850999989311,1
15182,142,Larynx,Sham,Cons,Clear,51,1,0,0.6890944999977359,1
15183,142,Larynx,Sham,Cons,Clear,52,3,1,0.800444999997126,1
15184,142,Larynx,Sham,Cons,Clear,53,5,1,0.834596600001532,1
15185,142,Larynx,Sham,Cons,Clear,54,2,0,0.7062295000032459,1
15186,142,Larynx,Sham,Cons,Clear,55,2,0,0.626545599996462,1
15187,142,Larynx,Sham,Cons,Clear,56,3,1,0.6672032000024051,1
15188,142,Larynx,Sham,Cons,Clear,57,5,1,0.7614646000001809,1
15189,142,Larynx,Sham,Cons,Clear,58,3,0,0.7191284999971691,1
15190,142,Larynx,Sham,Cons,Clear,59,3,1,0.522141400000692,1
15191,142,Larynx,Sham,Cons,Clear,60,2,0,0.7640837999970241,1
15192,142,Larynx,Sham,Cons,Clear,61,3,1,0.49431550000008395,1
15193,142,Larynx,Sham,Cons,Clear,62,4,1,0.536109299999225,1
15194,142,Larynx,Sham,Cons,Clear,63,3,1,0.534142299999075,1
15195,142,Larynx,Sham,Cons,Clear,64,5,1,0.551499199998943,1
15196,142,Larynx,Sham,Cons,Clear,65,3,0,0.610712899997452,1
15197,142,Larynx,Sham,Cons,Clear,66,3,1,0.546110199997202,1
15198,142,Larynx,Sham,Cons,Clear,67,4,1,0.6053524000017211,1
15199,142,Larynx,Sham,Cons,Clear,68,1,0,0.45377809999990903,1
15200,142,Larynx,Sham,Cons,Clear,69,3,1,0.40135759999975607,1
15201,142,Larynx,Sham,Cons,Clear,70,5,1,0.6464684000020501,1
15202,142,Larynx,Sham,Cons,Clear,71,3,1,0.528922800000146,1
15203,142,Larynx,Sham,Cons,Clear,72,4,1,0.9097983000028759,1
15204,142,Larynx,Sham,Cons,Clear,73,5,1,0.7705052999990579,1
15205,142,Larynx,Sham,Cons,Clear,74,2,0,0.51840920000177,1
15206,142,Larynx,Sham,Cons,Clear,75,1,0,0.503255599996919,1
15207,142,Larynx,Sham,Cons,Clear,76,2,0,0.6708225999973371,1
15208,142,Larynx,Sham,Cons,Clear,77,1,0,0.611634900000354,1
15209,142,Larynx,Sham,Cons,Clear,78,2,0,0.5835279000020821,1
15210,142,Larynx,Sham,Cons,Clear,79,5,1,0.425576599998749,1
15211,142,Larynx,Sham,Cons,Clear,80,2,0,0.6992586000014851,1
15212,142,Larynx,Sham,Cons,Clear,81,2,0,0.6388522000015661,1
15213,142,Larynx,Sham,Cons,Clear,82,2,0,0.666051600001083,1
15214,142,Larynx,Sham,Cons,Clear,83,4,1,0.46665270000084996,1
15215,142,Larynx,Sham,Cons,Clear,84,2,0,0.6253066999997829,1
15216,142,Larynx,Sham,Cons,Clear,85,2,0,0.6084227999999711,1
15217,142,Larynx,Sham,Cons,Clear,86,1,0,0.568553299999621,1
15218,142,Larynx,Sham,Cons,Clear,87,5,1,0.6734729000017979,1
15219,142,Larynx,Sham,Cons,Clear,88,5,1,0.8190954000019699,1
15220,142,Larynx,Sham,Cons,Clear,89,3,0,0.760494800000743,1
15221,142,Larynx,Sham,Cons,Clear,90,3,1,0.598821899999166,1
15222,142,Larynx,Sham,Cons,Clear,91,3,1,0.6638931999987111,1
15223,142,Larynx,Sham,Cons,Clear,92,4,1,0.677042200000869,1
15224,142,Larynx,Sham,Cons,Clear,93,4,1,0.547712299998238,1
15225,142,Larynx,Sham,Cons,Clear,94,5,1,0.652937799997744,1
15226,142,Larynx,Sham,Cons,Clear,95,4,1,0.576326099999278,1
15227,142,Larynx,Sham,Cons,Clear,96,5,1,0.688476600000286,1
15228,142,Larynx,Sham,Cons,Clear,97,1,0,0.679985700000543,1
15229,142,Larynx,Sham,Cons,Clear,98,3,1,1.1320367999978798,1
15230,142,Larynx,Sham,Cons,Clear,99,1,0,0.552991700002167,1
15231,142,Larynx,Sham,Cons,Clear,100,3,1,0.438754300001165,1
15232,142,Larynx,Sham,Cons,Clear,101,1,0,0.5115941000003661,1
15233,142,Larynx,Sham,Cons,Clear,102,4,1,0.430973899998207,1
15234,142,Larynx,Sham,Cons,Clear,103,3,0,0.8214603999986141,1
15235,142,Larynx,Sham,Cons,Clear,104,4,1,0.441500999997515,1
15236,142,Larynx,Sham,Cons,Clear,105,2,0,0.572031399999105,1
15237,142,Larynx,Sham,Cons,Clear,106,3,1,0.557421300003625,1
15238,142,Larynx,Sham,Cons,Clear,107,3,1,0.683097899996937,1
15239,142,Larynx,Sham,Cons,Clear,108,5,1,0.6744103000019089,1
15240,142,Larynx,Sham,Cons,Clear,109,3,0,0.9040806999983029,1
15241,142,Larynx,Sham,Cons,Clear,110,2,0,0.808880299999146,1
15242,142,Larynx,Sham,Cons,Clear,111,1,0,0.591128500000195,1
15243,142,Larynx,Sham,Cons,Clear,112,4,1,0.681439500000124,1
15244,142,Larynx,Sham,Cons,Clear,113,3,1,0.7177445999986959,1
15245,142,Larynx,Sham,Cons,Clear,114,4,1,0.663535200001206,1
15246,142,Larynx,Sham,Cons,Clear,115,1,0,0.5907213999998929,1
15247,142,Larynx,Sham,Cons,Clear,116,2,0,0.652258499998425,1
15248,142,Larynx,Sham,Cons,Clear,117,3,1,0.601586500000849,1
15249,142,Larynx,Sham,Cons,Clear,118,1,0,0.43884640000033,1
15250,142,Larynx,Sham,Cons,Clear,119,3,1,0.5016435000034111,1
15251,142,Larynx,Sham,Cons,Clear,120,1,0,0.516758699999627,1
15252,142,Larynx,Sham,Cons,Clear,121,3,1,0.424269999999524,1
15253,142,Larynx,Sham,Cons,Clear,122,2,1,0.647660800001177,1
15254,142,Larynx,Sham,Cons,Clear,123,4,1,0.7505473999990501,1
15255,142,Larynx,Sham,Cons,Clear,124,4,1,0.5948056999986869,1
15256,142,Larynx,Sham,Cons,Clear,125,3,1,0.860292299999855,1
15257,142,Larynx,Sham,Cons,Clear,126,3,1,0.7487202000011169,1
15258,142,Larynx,Sham,Cons,Clear,127,2,0,0.5400616000006271,1
15259,142,Larynx,Sham,Cons,Clear,128,4,1,0.5924715000001021,1
15260,142,Larynx,Sham,Cons,Clear,129,5,1,0.685124100000394,1
15261,142,Larynx,Sham,Cons,Clear,130,2,0,0.5996588999987579,1
15262,142,Larynx,Sham,Cons,Clear,131,1,0,0.540347499998461,1
15263,142,Larynx,Sham,Cons,Clear,132,2,0,0.785832199999277,1
15264,142,Larynx,Sham,Cons,Clear,133,5,1,0.543379200000345,1
15265,142,Larynx,Sham,Cons,Clear,134,3,0,0.610589300002175,1
15266,142,Larynx,Sham,Cons,Clear,135,3,1,0.626920999999129,1
15267,142,Larynx,Sham,Cons,Clear,136,3,0,0.549788200001785,1
15268,142,Larynx,Sham,Cons,Clear,137,2,0,0.9536135999987891,1
15269,142,Larynx,Sham,Cons,Clear,138,3,1,0.5744145999997271,1
15270,142,Larynx,Sham,Cons,Clear,139,4,1,0.814684099997976,1
15271,142,Larynx,Sham,Cons,Clear,140,3,1,0.8828484000005121,1
15272,142,Larynx,Sham,Cons,Clear,141,4,1,0.690249800001766,1
15273,142,Larynx,Sham,Cons,Clear,142,1,0,0.7089027000001809,1
15274,142,Larynx,Sham,Cons,Clear,143,5,1,0.629913699998724,1
15275,142,Larynx,Sham,Cons,Clear,144,2,0,0.558288700001867,1
15276,142,Larynx,Sham,Cons,Clear,145,3,1,0.6077296000003121,1
15277,142,Larynx,Sham,Cons,Clear,146,4,1,0.729061800000636,1
15278,142,Larynx,Sham,Cons,Clear,147,1,0,0.7456076999988,1
15279,142,Larynx,Sham,Cons,Clear,148,1,0,0.861547399999836,1
15280,142,Larynx,Sham,Cons,Clear,149,2,0,0.626924800002598,1
15281,142,Larynx,Sham,Cons,Clear,150,5,1,0.6598634000001771,1
15282,142,Larynx,Sham,Cons,Clear,151,5,1,0.6216482000018001,1
15283,142,Larynx,Sham,Cons,Clear,152,5,1,0.6678327000008721,1
15284,142,Larynx,Sham,Cons,Clear,153,4,1,0.62129780000032,1
15285,142,Larynx,Sham,Cons,Clear,154,3,0,0.586118100000022,1
15286,142,Larynx,Sham,Cons,Clear,155,2,0,0.6799238999992672,1
15287,142,Larynx,Sham,Cons,Clear,156,4,1,0.62818630000038,1
15756,201,Larynx,Left iTBS,Cons,Clear,1,2,1,0.8120004000375051,1
15757,201,Larynx,Left iTBS,Cons,Clear,2,3,1,0.6103254999616179,1
15758,201,Larynx,Left iTBS,Cons,Clear,3,5,1,0.5739882999914699,1
15759,201,Larynx,Left iTBS,Cons,Clear,4,5,1,0.538328599999659,1
15760,201,Larynx,Left iTBS,Cons,Clear,5,2,1,0.624108899966814,1
15761,201,Larynx,Left iTBS,Cons,Clear,6,4,1,0.481563000008464,1
15762,201,Larynx,Left iTBS,Cons,Clear,7,1,0,0.5316781000001359,1
15763,201,Larynx,Left iTBS,Cons,Clear,8,2,0,0.974155399948359,1
15764,201,Larynx,Left iTBS,Cons,Clear,9,3,1,0.6430316999903879,1
15765,201,Larynx,Left iTBS,Cons,Clear,10,3,1,0.500547700037714,1
15766,201,Larynx,Left iTBS,Cons,Clear,11,1,0,0.569279699993785,1
15767,201,Larynx,Left iTBS,Cons,Clear,12,4,1,0.5584356000181291,1
15768,201,Larynx,Left iTBS,Cons,Clear,13,3,1,0.501453900011256,1
15769,201,Larynx,Left iTBS,Cons,Clear,14,3,1,0.462442599993665,1
15770,201,Larynx,Left iTBS,Cons,Clear,15,1,0,0.6099560000002379,1
15771,201,Larynx,Left iTBS,Cons,Clear,16,2,0,0.8449060999555509,1
15772,201,Larynx,Left iTBS,Cons,Clear,17,3,1,0.502935500000604,1
15773,201,Larynx,Left iTBS,Cons,Clear,18,5,1,0.511546000023372,1
15774,201,Larynx,Left iTBS,Cons,Clear,19,5,1,0.551778800028842,1
15775,201,Larynx,Left iTBS,Cons,Clear,20,3,1,0.494725000055041,1
15776,201,Larynx,Left iTBS,Cons,Clear,21,4,1,0.5565054999897261,1
15777,201,Larynx,Left iTBS,Cons,Clear,22,1,0,0.4953887999872679,1
15778,201,Larynx,Left iTBS,Cons,Clear,23,3,1,0.5596302000340071,1
15779,201,Larynx,Left iTBS,Cons,Clear,24,5,1,0.559603200003039,1
15780,201,Larynx,Left iTBS,Cons,Clear,25,2,0,0.650079799990635,1
15781,201,Larynx,Left iTBS,Cons,Clear,26,3,1,1.01340989995515,1
15782,201,Larynx,Left iTBS,Cons,Clear,27,4,1,0.524349899962544,1
15783,201,Larynx,Left iTBS,Cons,Clear,28,2,1,0.538115400006063,1
15784,201,Larynx,Left iTBS,Cons,Clear,29,4,1,0.5416223999927751,1
15785,201,Larynx,Left iTBS,Cons,Clear,30,4,1,0.46457229997031396,1
15786,201,Larynx,Left iTBS,Cons,Clear,31,3,1,0.452375499997288,1
15787,201,Larynx,Left iTBS,Cons,Clear,32,4,1,0.4990520999999721,1
15788,201,Larynx,Left iTBS,Cons,Clear,33,5,1,0.463442900043447,1
15789,201,Larynx,Left iTBS,Cons,Clear,34,1,0,0.535450200026389,1
15790,201,Larynx,Left iTBS,Cons,Clear,35,4,1,1.04416839999612,1
15791,201,Larynx,Left iTBS,Cons,Clear,36,2,0,0.824125599989202,1
15792,201,Larynx,Left iTBS,Cons,Clear,37,2,0,0.672996399982367,1
15793,201,Larynx,Left iTBS,Cons,Clear,38,3,0,0.923971700016409,1
15794,201,Larynx,Left iTBS,Cons,Clear,39,1,0,0.6299946000217459,1
15795,201,Larynx,Left iTBS,Cons,Clear,40,3,1,0.512869300029706,1
15796,201,Larynx,Left iTBS,Cons,Clear,41,3,1,0.441995100001805,1
15797,201,Larynx,Left iTBS,Cons,Clear,42,5,1,0.44519510003738105,1
15798,201,Larynx,Left iTBS,Cons,Clear,43,1,0,0.514003399992362,1
15799,201,Larynx,Left iTBS,Cons,Clear,44,2,0,0.8686263000126929,1
