,subj_idx,group_idx,turn_type,task_type,snr_type,trial_num,step_att,response,rt,step_unatnd
2028,55,Larynx,Right cTBS,Cons,Clear,1,3,1,1.43661530000099,1
2029,55,Larynx,Right cTBS,Cons,Clear,2,4,1,0.890449399987119,1
2030,55,Larynx,Right cTBS,Cons,Clear,3,4,1,0.5521288000018101,1
2031,55,Larynx,Right cTBS,Cons,Clear,4,5,1,0.5048651999968571,1
2032,55,Larynx,Right cTBS,Cons,Clear,5,4,1,0.48730520000390204,1
2033,55,Larynx,Right cTBS,Cons,Clear,6,4,1,0.49712909999652793,1
2034,55,Larynx,Right cTBS,Cons,Clear,7,5,1,0.5170805000088879,1
2035,55,Larynx,Right cTBS,Cons,Clear,8,5,1,0.529131899995264,1
2036,55,Larynx,Right cTBS,Cons,Clear,9,1,0,0.5296888000011679,1
2037,55,Larynx,Right cTBS,Cons,Clear,10,3,1,0.49330390000250196,1
2038,55,Larynx,Right cTBS,Cons,Clear,11,5,1,0.560370100007276,1
2039,55,Larynx,Right cTBS,Cons,Clear,12,2,0,0.6324050000112039,1
2040,55,Larynx,Right cTBS,Cons,Clear,13,3,1,0.8957169000059371,1
2041,55,Larynx,Right cTBS,Cons,Clear,14,1,0,1.3681523000123,1
2042,55,Larynx,Right cTBS,Cons,Clear,15,1,0,0.591914500007988,1
2043,55,Larynx,Right cTBS,Cons,Clear,16,2,0,1.0110902999877,1
2044,55,Larynx,Right cTBS,Cons,Clear,17,3,1,0.55380029999651,1
2045,55,Larynx,Right cTBS,Cons,Clear,18,1,0,0.609624199991231,1
2046,55,Larynx,Right cTBS,Cons,Clear,19,3,1,0.5561865000054239,1
2047,55,Larynx,Right cTBS,Cons,Clear,20,3,1,0.607320499999332,1
2048,55,Larynx,Right cTBS,Cons,Clear,21,3,1,0.609580699994694,1
2049,55,Larynx,Right cTBS,Cons,Clear,22,4,1,0.5403716000000711,1
2050,55,Larynx,Right cTBS,Cons,Clear,23,4,1,0.523060400009854,1
2051,55,Larynx,Right cTBS,Cons,Clear,24,5,1,0.489787300000899,1
2052,55,Larynx,Right cTBS,Cons,Clear,25,3,1,0.529332899997826,1
2053,55,Larynx,Right cTBS,Cons,Clear,26,3,1,0.827785200002836,1
2054,55,Larynx,Right cTBS,Cons,Clear,27,3,1,0.6450389999954499,1
2055,55,Larynx,Right cTBS,Cons,Clear,28,1,0,0.520400299996254,1
2056,55,Larynx,Right cTBS,Cons,Clear,29,4,1,0.607232099995599,1
2057,55,Larynx,Right cTBS,Cons,Clear,30,2,0,0.739962499996182,1
2058,55,Larynx,Right cTBS,Cons,Clear,31,2,1,0.4393463999876989,1
2059,55,Larynx,Right cTBS,Cons,Clear,32,3,1,0.536018600003445,1
2060,55,Larynx,Right cTBS,Cons,Clear,33,4,1,0.5222907999996099,1
2061,55,Larynx,Right cTBS,Cons,Clear,34,5,1,0.473612699992373,1
2062,55,Larynx,Right cTBS,Cons,Clear,35,2,0,0.6829924000048779,1
2063,55,Larynx,Right cTBS,Cons,Clear,36,2,0,0.5884463999973379,1
2064,55,Larynx,Right cTBS,Cons,Clear,37,2,1,0.42282379999232894,1
2065,55,Larynx,Right cTBS,Cons,Clear,38,1,0,0.40356389999215,1
2066,55,Larynx,Right cTBS,Cons,Clear,39,2,1,0.7087958000047371,1
2067,55,Larynx,Right cTBS,Cons,Clear,40,4,1,0.593144699989352,1
2068,55,Larynx,Right cTBS,Cons,Clear,41,3,1,0.580683599997428,1
2069,55,Larynx,Right cTBS,Cons,Clear,42,4,1,0.626802400001907,1
2070,55,Larynx,Right cTBS,Cons,Clear,43,1,0,0.6081440999987541,1
2071,55,Larynx,Right cTBS,Cons,Clear,44,1,0,0.646296300008544,1
2072,55,Larynx,Right cTBS,Cons,Clear,45,2,1,0.8366097999969498,1
2073,55,Larynx,Right cTBS,Cons,Clear,46,4,1,0.7443302000028779,1
2074,55,Larynx,Right cTBS,Cons,Clear,47,4,1,0.5941384999896401,1
2075,55,Larynx,Right cTBS,Cons,Clear,48,5,1,0.592282800003886,1
2076,55,Larynx,Right cTBS,Cons,Clear,49,4,1,0.704671300001792,1
2077,55,Larynx,Right cTBS,Cons,Clear,50,2,0,0.594196100006229,1
2078,55,Larynx,Right cTBS,Cons,Clear,51,1,0,0.6955509000108578,1
2079,55,Larynx,Right cTBS,Cons,Clear,52,3,1,0.6540356999903449,1
2080,55,Larynx,Right cTBS,Cons,Clear,53,5,1,2.27680289999989,1
2081,55,Larynx,Right cTBS,Cons,Clear,54,2,0,0.643347000004724,1
2082,55,Larynx,Right cTBS,Cons,Clear,55,2,0,0.7848965000011959,1
2083,55,Larynx,Right cTBS,Cons,Clear,56,3,1,0.599924299996928,1
2084,55,Larynx,Right cTBS,Cons,Clear,57,5,1,0.5592922000068941,1
2085,55,Larynx,Right cTBS,Cons,Clear,58,3,1,0.7425329999969108,1
2086,55,Larynx,Right cTBS,Cons,Clear,59,3,1,0.6482363000104671,1
2087,55,Larynx,Right cTBS,Cons,Clear,60,2,0,0.7561413999937941,1
2088,55,Larynx,Right cTBS,Cons,Clear,61,3,1,0.7319998999882958,1
2089,55,Larynx,Right cTBS,Cons,Clear,62,4,1,0.9075212000025201,1
2090,55,Larynx,Right cTBS,Cons,Clear,63,3,1,0.708691000007093,1
2091,55,Larynx,Right cTBS,Cons,Clear,64,5,1,0.868496999988565,1
2092,55,Larynx,Right cTBS,Cons,Clear,65,3,1,0.67315139999846,1
2093,55,Larynx,Right cTBS,Cons,Clear,66,3,0,1.82416820000799,1
2094,55,Larynx,Right cTBS,Cons,Clear,67,4,1,0.6836203999991989,1
2095,55,Larynx,Right cTBS,Cons,Clear,68,1,0,0.7143807000102241,1
2096,55,Larynx,Right cTBS,Cons,Clear,69,3,1,0.6572949999972479,1
2097,55,Larynx,Right cTBS,Cons,Clear,70,5,1,0.59237659999053,1
2098,55,Larynx,Right cTBS,Cons,Clear,71,3,1,0.6341439000098029,1
2099,55,Larynx,Right cTBS,Cons,Clear,72,4,1,0.5340030999941521,1
2100,55,Larynx,Right cTBS,Cons,Clear,73,5,1,0.47296889999415703,1
2101,55,Larynx,Right cTBS,Cons,Clear,74,2,0,0.714222799986601,1
2102,55,Larynx,Right cTBS,Cons,Clear,75,1,0,0.564518500003032,1
2103,55,Larynx,Right cTBS,Cons,Clear,76,2,1,0.9270264999940991,1
2104,55,Larynx,Right cTBS,Cons,Clear,77,1,0,0.6559826000011529,1
2105,55,Larynx,Right cTBS,Cons,Clear,78,2,1,0.8451101999962701,1
2106,55,Larynx,Right cTBS,Cons,Clear,79,5,1,0.598069500003476,1
2107,55,Larynx,Right cTBS,Cons,Clear,80,2,0,0.706914099995629,1
2108,55,Larynx,Right cTBS,Cons,Clear,81,2,0,0.790559900007793,1
2109,55,Larynx,Right cTBS,Cons,Clear,82,2,1,0.8266404000023609,1
2110,55,Larynx,Right cTBS,Cons,Clear,83,4,1,0.9349337999883571,1
2111,55,Larynx,Right cTBS,Cons,Clear,84,2,0,0.6552389999997099,1
2112,55,Larynx,Right cTBS,Cons,Clear,85,2,0,1.14260030000878,1
2113,55,Larynx,Right cTBS,Cons,Clear,86,1,1,0.9221267000102671,1
2114,55,Larynx,Right cTBS,Cons,Clear,87,5,1,1.59947309999552,1
2115,55,Larynx,Right cTBS,Cons,Clear,88,5,1,0.6375887000031071,1
2116,55,Larynx,Right cTBS,Cons,Clear,89,3,1,0.5469436999992471,1
2117,55,Larynx,Right cTBS,Cons,Clear,90,3,1,0.623179299989715,1
2118,55,Larynx,Right cTBS,Cons,Clear,91,3,1,0.55073670001002,1
2119,55,Larynx,Right cTBS,Cons,Clear,92,4,1,0.5013580000086221,1
2120,55,Larynx,Right cTBS,Cons,Clear,93,4,1,0.541698300003191,1
2121,55,Larynx,Right cTBS,Cons,Clear,94,5,1,0.503495999990264,1
2122,55,Larynx,Right cTBS,Cons,Clear,95,4,1,0.6067616999935129,1
2123,55,Larynx,Right cTBS,Cons,Clear,96,5,1,0.767644999999902,1
2124,55,Larynx,Right cTBS,Cons,Clear,97,1,0,0.529734899988398,1
2125,55,Larynx,Right cTBS,Cons,Clear,98,3,1,0.5318823999987221,1
2126,55,Larynx,Right cTBS,Cons,Clear,99,1,0,0.540943600004539,1
2127,55,Larynx,Right cTBS,Cons,Clear,100,3,1,0.5341054000018629,1
2128,55,Larynx,Right cTBS,Cons,Clear,101,1,0,0.558708199998364,1
2129,55,Larynx,Right cTBS,Cons,Clear,102,4,1,0.600327100008144,1
2130,55,Larynx,Right cTBS,Cons,Clear,103,3,1,0.774681599999894,1
2131,55,Larynx,Right cTBS,Cons,Clear,104,4,1,1.06540259999747,1
2132,55,Larynx,Right cTBS,Cons,Clear,105,2,0,0.725222900000517,1
2133,55,Larynx,Right cTBS,Cons,Clear,106,3,1,0.7904649000120121,1
2134,55,Larynx,Right cTBS,Cons,Clear,107,3,1,0.5602568000031171,1
2135,55,Larynx,Right cTBS,Cons,Clear,108,5,1,0.598694899992552,1
2136,55,Larynx,Right cTBS,Cons,Clear,109,3,1,0.670086199999787,1
2137,55,Larynx,Right cTBS,Cons,Clear,110,2,0,0.610419100004947,1
2138,55,Larynx,Right cTBS,Cons,Clear,111,1,0,0.7745892000093589,1
2139,55,Larynx,Right cTBS,Cons,Clear,112,4,1,0.5998509999917591,1
2140,55,Larynx,Right cTBS,Cons,Clear,113,3,0,1.03422509999655,1
2141,55,Larynx,Right cTBS,Cons,Clear,114,4,1,0.9190360000065991,1
2142,55,Larynx,Right cTBS,Cons,Clear,115,1,0,0.63228189999063,1
2143,55,Larynx,Right cTBS,Cons,Clear,116,2,0,1.79297890000453,1
2144,55,Larynx,Right cTBS,Cons,Clear,117,3,1,0.783591700004763,1
2145,55,Larynx,Right cTBS,Cons,Clear,118,1,0,0.5774904999998399,1
2146,55,Larynx,Right cTBS,Cons,Clear,119,3,1,0.528256999998121,1
2147,55,Larynx,Right cTBS,Cons,Clear,120,1,0,0.588802599988412,1
2148,55,Larynx,Right cTBS,Cons,Clear,121,3,1,0.620457299999543,1
2149,55,Larynx,Right cTBS,Cons,Clear,122,2,0,0.62600879999809,1
2150,55,Larynx,Right cTBS,Cons,Clear,123,4,1,0.6460422999953149,1
2151,55,Larynx,Right cTBS,Cons,Clear,124,4,1,0.564828400005354,1
2152,55,Larynx,Right cTBS,Cons,Clear,125,3,1,0.9893685999995799,1
2153,55,Larynx,Right cTBS,Cons,Clear,126,3,1,0.59149819999584,1
2154,55,Larynx,Right cTBS,Cons,Clear,127,2,0,0.589074599993182,1
2155,55,Larynx,Right cTBS,Cons,Clear,128,4,1,0.493409900009283,1
2156,55,Larynx,Right cTBS,Cons,Clear,129,5,1,0.5292129000008571,1
2157,55,Larynx,Right cTBS,Cons,Clear,130,2,0,1.9728563999960902,1
2158,55,Larynx,Right cTBS,Cons,Clear,131,1,0,0.6443361999990881,1
2159,55,Larynx,Right cTBS,Cons,Clear,132,2,1,0.806980800000019,1
2160,55,Larynx,Right cTBS,Cons,Clear,133,5,1,0.6792010000062869,1
2161,55,Larynx,Right cTBS,Cons,Clear,134,3,1,0.562581700010924,1
2162,55,Larynx,Right cTBS,Cons,Clear,135,3,1,0.615743599992129,1
2163,55,Larynx,Right cTBS,Cons,Clear,136,3,1,0.547497000006842,1
2164,55,Larynx,Right cTBS,Cons,Clear,137,2,1,0.757534700009273,1
2165,55,Larynx,Right cTBS,Cons,Clear,138,3,1,0.658478799989098,1
2166,55,Larynx,Right cTBS,Cons,Clear,139,4,1,0.638150099999621,1
2167,55,Larynx,Right cTBS,Cons,Clear,140,3,1,0.589304400011315,1
2168,55,Larynx,Right cTBS,Cons,Clear,141,4,1,0.598106699995697,1
2169,55,Larynx,Right cTBS,Cons,Clear,142,1,0,0.646335199999157,1
2170,55,Larynx,Right cTBS,Cons,Clear,143,5,1,1.34688920000917,1
2171,55,Larynx,Right cTBS,Cons,Clear,144,2,0,0.905498299995088,1
2172,55,Larynx,Right cTBS,Cons,Clear,145,3,1,0.566125600002124,1
2173,55,Larynx,Right cTBS,Cons,Clear,146,4,1,0.834095900005195,1
2174,55,Larynx,Right cTBS,Cons,Clear,147,1,0,0.7993833000073209,1
2175,55,Larynx,Right cTBS,Cons,Clear,148,1,0,0.5950158000050579,1
2176,55,Larynx,Right cTBS,Cons,Clear,149,2,1,0.591970599998604,1
2177,55,Larynx,Right cTBS,Cons,Clear,150,5,0,0.648482499993406,1
2178,55,Larynx,Right cTBS,Cons,Clear,151,5,1,0.6529081000044239,1
2179,55,Larynx,Right cTBS,Cons,Clear,152,5,1,0.5377178999915491,1
2180,55,Larynx,Right cTBS,Cons,Clear,153,4,1,0.641633899998851,1
2181,55,Larynx,Right cTBS,Cons,Clear,154,3,1,0.697556400002213,1
2182,55,Larynx,Right cTBS,Cons,Clear,155,2,0,2.46959599999536,1
2183,55,Larynx,Right cTBS,Cons,Clear,156,4,1,0.5682555000094001,1
2652,55,Larynx,Sham,Cons,Clear,1,4,1,0.934042100096121,1
2653,55,Larynx,Sham,Cons,Clear,2,3,0,0.710423299926333,1
2654,55,Larynx,Sham,Cons,Clear,3,4,1,0.705889699980617,1
2655,55,Larynx,Sham,Cons,Clear,4,5,1,0.540295299957506,1
2656,55,Larynx,Sham,Cons,Clear,5,2,0,0.9196360999485479,1
2657,55,Larynx,Sham,Cons,Clear,6,1,0,0.6825928000034761,1
2658,55,Larynx,Sham,Cons,Clear,7,2,1,0.578115500044078,1
2659,55,Larynx,Sham,Cons,Clear,8,4,1,0.49368079996202097,1
2660,55,Larynx,Sham,Cons,Clear,9,1,0,0.50125760002993,1
2661,55,Larynx,Sham,Cons,Clear,10,3,1,0.46261219994630703,1
2662,55,Larynx,Sham,Cons,Clear,11,4,1,0.44901630003005294,1
2663,55,Larynx,Sham,Cons,Clear,12,1,0,0.457939499989152,1
2664,55,Larynx,Sham,Cons,Clear,13,5,1,0.412294800044037,1
2665,55,Larynx,Sham,Cons,Clear,14,3,1,0.412832199945115,1
2666,55,Larynx,Sham,Cons,Clear,15,3,1,0.400856700027362,1
2667,55,Larynx,Sham,Cons,Clear,16,5,1,0.488825099891983,1
2668,55,Larynx,Sham,Cons,Clear,17,2,0,1.04162819997873,1
2669,55,Larynx,Sham,Cons,Clear,18,2,1,0.473968900041655,1
2670,55,Larynx,Sham,Cons,Clear,19,3,1,0.37195810000412205,1
2671,55,Larynx,Sham,Cons,Clear,20,4,1,0.528839699923992,1
2672,55,Larynx,Sham,Cons,Clear,21,3,1,0.48345010005869,1
2673,55,Larynx,Sham,Cons,Clear,22,4,1,0.539515699958429,1
2674,55,Larynx,Sham,Cons,Clear,23,1,1,1.21700820000842,1
2675,55,Larynx,Sham,Cons,Clear,24,3,1,0.7850910000270229,1
2676,55,Larynx,Sham,Cons,Clear,25,2,0,0.8673005000455309,1
2677,55,Larynx,Sham,Cons,Clear,26,3,1,0.49269039998762304,1
2678,55,Larynx,Sham,Cons,Clear,27,4,1,0.529948699986562,1
2679,55,Larynx,Sham,Cons,Clear,28,5,1,0.5745814999099821,1
2680,55,Larynx,Sham,Cons,Clear,29,1,0,0.472347900038585,1
2681,55,Larynx,Sham,Cons,Clear,30,2,0,0.9732041000388559,1
2682,55,Larynx,Sham,Cons,Clear,31,3,1,0.434497099951841,1
2683,55,Larynx,Sham,Cons,Clear,32,4,1,0.521754699992016,1
2684,55,Larynx,Sham,Cons,Clear,33,5,1,0.55417929997202,1
2685,55,Larynx,Sham,Cons,Clear,34,3,1,0.5580500999931249,1
2686,55,Larynx,Sham,Cons,Clear,35,2,0,0.958747299970128,1
2687,55,Larynx,Sham,Cons,Clear,36,1,0,0.8038388999411841,1
2688,55,Larynx,Sham,Cons,Clear,37,2,1,0.752397899981588,1
2689,55,Larynx,Sham,Cons,Clear,38,3,1,0.696927699958906,1
2690,55,Larynx,Sham,Cons,Clear,39,5,1,0.638439400005154,1
2691,55,Larynx,Sham,Cons,Clear,40,3,0,0.665475399931893,1
2692,55,Larynx,Sham,Cons,Clear,41,1,0,0.804136399994604,1
2693,55,Larynx,Sham,Cons,Clear,42,1,0,0.8864494999870659,1
2694,55,Larynx,Sham,Cons,Clear,43,2,0,0.716498899972066,1
2695,55,Larynx,Sham,Cons,Clear,44,2,1,0.8734404999995601,1
2696,55,Larynx,Sham,Cons,Clear,45,2,1,1.56464120000601,1
2697,55,Larynx,Sham,Cons,Clear,46,3,1,1.4582583999726901,1
2698,55,Larynx,Sham,Cons,Clear,47,5,1,0.69781350006815,1
2699,55,Larynx,Sham,Cons,Clear,48,5,1,0.7539287999970842,1
2700,55,Larynx,Sham,Cons,Clear,49,1,0,0.556172900018282,1
2701,55,Larynx,Sham,Cons,Clear,50,1,0,0.539429800002836,1
2702,55,Larynx,Sham,Cons,Clear,51,3,1,0.5126088999677451,1
2703,55,Larynx,Sham,Cons,Clear,52,4,1,0.5100682999473071,1
2704,55,Larynx,Sham,Cons,Clear,53,4,1,0.57039539993275,1
2705,55,Larynx,Sham,Cons,Clear,54,5,1,0.5973072999622671,1
2706,55,Larynx,Sham,Cons,Clear,55,5,1,0.543352500069886,1
2707,55,Larynx,Sham,Cons,Clear,56,3,1,1.17996950005181,1
2708,55,Larynx,Sham,Cons,Clear,57,4,1,0.667081900057383,1
2709,55,Larynx,Sham,Cons,Clear,58,3,1,0.553447399986908,1
2710,55,Larynx,Sham,Cons,Clear,59,2,0,0.563202399993315,1
2711,55,Larynx,Sham,Cons,Clear,60,2,0,0.6657547999639061,1
2712,55,Larynx,Sham,Cons,Clear,61,3,1,0.5075607999460771,1
2713,55,Larynx,Sham,Cons,Clear,62,4,1,0.530659900046885,1
2714,55,Larynx,Sham,Cons,Clear,63,3,1,0.875839100102894,1
2715,55,Larynx,Sham,Cons,Clear,64,4,1,0.598167099989951,1
2716,55,Larynx,Sham,Cons,Clear,65,2,0,1.03669149999041,1
2717,55,Larynx,Sham,Cons,Clear,66,3,0,1.1199778000591298,1
2718,55,Larynx,Sham,Cons,Clear,67,3,1,1.98254430002999,1
2719,55,Larynx,Sham,Cons,Clear,68,5,1,0.583603100036271,1
2720,55,Larynx,Sham,Cons,Clear,69,4,1,0.612070000031963,1
2721,55,Larynx,Sham,Cons,Clear,70,5,1,0.518571099964902,1
2722,55,Larynx,Sham,Cons,Clear,71,2,0,0.589270600001328,1
2723,55,Larynx,Sham,Cons,Clear,72,4,1,0.447820200002752,1
2724,55,Larynx,Sham,Cons,Clear,73,2,0,0.8609258999349549,1
2725,55,Larynx,Sham,Cons,Clear,74,4,1,0.75710839999374,1
2726,55,Larynx,Sham,Cons,Clear,75,1,0,0.587426299927756,1
2727,55,Larynx,Sham,Cons,Clear,76,3,1,0.6245000999188051,1
2728,55,Larynx,Sham,Cons,Clear,77,1,0,0.5144118999596691,1
2729,55,Larynx,Sham,Cons,Clear,78,3,1,0.586247499915771,1
2730,55,Larynx,Sham,Cons,Clear,79,5,1,0.634433800005354,1
2731,55,Larynx,Sham,Cons,Clear,80,2,1,0.983725999947637,1
2732,55,Larynx,Sham,Cons,Clear,81,4,1,0.565881899907254,1
2733,55,Larynx,Sham,Cons,Clear,82,3,1,0.6869611999718471,1
2734,55,Larynx,Sham,Cons,Clear,83,5,1,0.9323210000293329,1
2735,55,Larynx,Sham,Cons,Clear,84,1,0,1.01071979990229,1
2736,55,Larynx,Sham,Cons,Clear,85,4,1,0.6462203999981279,1
2737,55,Larynx,Sham,Cons,Clear,86,5,1,0.616794099914841,1
2738,55,Larynx,Sham,Cons,Clear,87,2,0,0.617599799996242,1
2739,55,Larynx,Sham,Cons,Clear,88,5,1,0.517924600047991,1
2740,55,Larynx,Sham,Cons,Clear,89,5,1,1.09142780001275,1
2741,55,Larynx,Sham,Cons,Clear,90,3,1,0.998555000056513,1
2742,55,Larynx,Sham,Cons,Clear,91,4,1,0.720264800009318,1
2743,55,Larynx,Sham,Cons,Clear,92,3,1,0.6469617999391629,1
2744,55,Larynx,Sham,Cons,Clear,93,3,1,0.596635499969125,1
2745,55,Larynx,Sham,Cons,Clear,94,4,1,2.31250889995135,1
2746,55,Larynx,Sham,Cons,Clear,95,1,0,0.549397900002077,1
2747,55,Larynx,Sham,Cons,Clear,96,1,0,0.8234475000062959,1
2748,55,Larynx,Sham,Cons,Clear,97,4,1,1.1256134000141202,1
2749,55,Larynx,Sham,Cons,Clear,98,2,0,1.0388919999823,1
2750,55,Larynx,Sham,Cons,Clear,99,2,1,0.991586300078779,1
2751,55,Larynx,Sham,Cons,Clear,100,3,1,0.832184799946845,1
2752,55,Larynx,Sham,Cons,Clear,101,3,1,0.674170100013725,1
2753,55,Larynx,Sham,Cons,Clear,102,1,0,0.6098851999267939,1
2754,55,Larynx,Sham,Cons,Clear,103,4,1,0.682268599979579,1
2755,55,Larynx,Sham,Cons,Clear,104,3,1,1.28205010003876,1
2756,55,Larynx,Sham,Cons,Clear,105,2,0,1.01399539993145,1
2757,55,Larynx,Sham,Cons,Clear,106,2,1,1.19507280003745,1
2758,55,Larynx,Sham,Cons,Clear,107,4,1,0.750296999933198,1
2759,55,Larynx,Sham,Cons,Clear,108,3,1,0.673163900035433,1
2760,55,Larynx,Sham,Cons,Clear,109,4,1,0.8813494999194521,1
2761,55,Larynx,Sham,Cons,Clear,110,1,0,0.596333499997854,1
2762,55,Larynx,Sham,Cons,Clear,111,1,0,0.537975999992341,1
2763,55,Larynx,Sham,Cons,Clear,112,2,0,0.63407729996834,1
2764,55,Larynx,Sham,Cons,Clear,113,2,1,1.0127371998969499,1
2765,55,Larynx,Sham,Cons,Clear,114,3,1,1.0349351000040798,1
2766,55,Larynx,Sham,Cons,Clear,115,3,1,0.7054344998905441,1
2767,55,Larynx,Sham,Cons,Clear,116,5,1,0.68861630000174,1
2768,55,Larynx,Sham,Cons,Clear,117,3,1,0.748984400066547,1
2769,55,Larynx,Sham,Cons,Clear,118,5,1,0.6910728000802919,1
2770,55,Larynx,Sham,Cons,Clear,119,3,1,0.630544800078496,1
2771,55,Larynx,Sham,Cons,Clear,120,1,0,0.566733799991198,1
2772,55,Larynx,Sham,Cons,Clear,121,2,0,0.7773271000478421,1
2773,55,Larynx,Sham,Cons,Clear,122,3,1,1.02154910005629,1
2774,55,Larynx,Sham,Cons,Clear,123,4,1,0.657522000023164,1
2775,55,Larynx,Sham,Cons,Clear,124,3,1,0.688550400082022,1
2776,55,Larynx,Sham,Cons,Clear,125,4,1,0.532777699991129,1
2777,55,Larynx,Sham,Cons,Clear,126,3,1,0.7433516000164669,1
2778,55,Larynx,Sham,Cons,Clear,127,3,1,0.631413799943402,1
2779,55,Larynx,Sham,Cons,Clear,128,5,1,0.805384799954481,1
2780,55,Larynx,Sham,Cons,Clear,129,2,0,0.585150099941529,1
2781,55,Larynx,Sham,Cons,Clear,130,4,1,0.6267780999187379,1
2782,55,Larynx,Sham,Cons,Clear,131,3,1,0.8556218999437991,1
2783,55,Larynx,Sham,Cons,Clear,132,1,0,0.79002020007465,1
2784,55,Larynx,Sham,Cons,Clear,133,2,0,0.8613106000702829,1
2785,55,Larynx,Sham,Cons,Clear,134,1,0,0.709599800058641,1
2786,55,Larynx,Sham,Cons,Clear,135,4,1,0.559192699962296,1
2787,55,Larynx,Sham,Cons,Clear,136,2,0,0.7048461000667879,1
2788,55,Larynx,Sham,Cons,Clear,137,2,0,1.0829685999779002,1
2789,55,Larynx,Sham,Cons,Clear,138,1,0,0.707380799925886,1
2790,55,Larynx,Sham,Cons,Clear,139,4,1,1.01547589991242,1
2791,55,Larynx,Sham,Cons,Clear,140,3,0,1.4180633999640102,1
2792,55,Larynx,Sham,Cons,Clear,141,5,1,1.19451719999779,1
2793,55,Larynx,Sham,Cons,Clear,142,2,0,0.957568400073797,1
2794,55,Larynx,Sham,Cons,Clear,143,3,1,0.7927589000901211,1
2795,55,Larynx,Sham,Cons,Clear,144,3,1,0.829562400002033,1
2796,55,Larynx,Sham,Cons,Clear,145,5,1,0.7888248000526801,1
2797,55,Larynx,Sham,Cons,Clear,146,1,0,0.9875916000455619,1
2798,55,Larynx,Sham,Cons,Clear,147,5,1,1.0835322999628298,1
2799,55,Larynx,Sham,Cons,Clear,148,4,1,0.6853675000602379,1
2800,55,Larynx,Sham,Cons,Clear,149,3,1,0.6188969999784599,1
2801,55,Larynx,Sham,Cons,Clear,150,4,1,0.862097200006247,1
2802,55,Larynx,Sham,Cons,Clear,151,2,0,0.5490051000379029,1
2803,55,Larynx,Sham,Cons,Clear,152,1,0,0.534602500032634,1
2804,55,Larynx,Sham,Cons,Clear,153,3,1,3.14731749997009,1
2805,55,Larynx,Sham,Cons,Clear,154,2,0,0.5928573999553921,1
2806,55,Larynx,Sham,Cons,Clear,155,4,1,0.627199400099926,1
2807,55,Larynx,Sham,Cons,Clear,156,5,1,0.500713000074029,1
5148,104,Larynx,Right cTBS,Cons,Clear,1,2,1,0.7723514999961479,1
5149,104,Larynx,Right cTBS,Cons,Clear,2,3,1,0.658227099978831,1
5150,104,Larynx,Right cTBS,Cons,Clear,3,5,1,0.6031030999729411,1
5151,104,Larynx,Right cTBS,Cons,Clear,4,5,1,0.673240099975374,1
5152,104,Larynx,Right cTBS,Cons,Clear,5,2,0,0.616228199971374,1
5153,104,Larynx,Right cTBS,Cons,Clear,6,4,1,0.6385742999846121,1
5154,104,Larynx,Right cTBS,Cons,Clear,7,1,0,0.533360500005074,1
5155,104,Larynx,Right cTBS,Cons,Clear,8,2,1,0.623577199992724,1
5156,104,Larynx,Right cTBS,Cons,Clear,9,3,1,0.49889789998997,1
5157,104,Larynx,Right cTBS,Cons,Clear,10,3,1,0.587256299972069,1
5158,104,Larynx,Right cTBS,Cons,Clear,11,1,0,0.589781100046821,1
5159,104,Larynx,Right cTBS,Cons,Clear,12,4,1,0.7111800999846309,1
5160,104,Larynx,Right cTBS,Cons,Clear,13,3,1,0.6770536000258289,1
5161,104,Larynx,Right cTBS,Cons,Clear,14,3,1,0.569987599970773,1
5162,104,Larynx,Right cTBS,Cons,Clear,15,1,0,0.6106704000267199,1
5163,104,Larynx,Right cTBS,Cons,Clear,16,2,1,0.619681700016372,1
5164,104,Larynx,Right cTBS,Cons,Clear,17,3,1,0.6942008000332861,1
5165,104,Larynx,Right cTBS,Cons,Clear,18,5,1,0.554886099998839,1
5166,104,Larynx,Right cTBS,Cons,Clear,19,5,1,0.590110899996944,1
5167,104,Larynx,Right cTBS,Cons,Clear,20,3,1,0.562040599994361,1
5168,104,Larynx,Right cTBS,Cons,Clear,21,4,1,0.555774799955543,1
5169,104,Larynx,Right cTBS,Cons,Clear,22,1,0,0.565695600002073,1
5170,104,Larynx,Right cTBS,Cons,Clear,23,3,1,0.5858446999918671,1
5171,104,Larynx,Right cTBS,Cons,Clear,24,5,1,0.560463000030722,1
5172,104,Larynx,Right cTBS,Cons,Clear,25,2,0,0.6026906999759379,1
5173,104,Larynx,Right cTBS,Cons,Clear,26,3,1,0.5901211000164039,1
5174,104,Larynx,Right cTBS,Cons,Clear,27,4,1,0.527240099967457,1
5175,104,Larynx,Right cTBS,Cons,Clear,28,2,0,0.587575100013055,1
5176,104,Larynx,Right cTBS,Cons,Clear,29,4,1,0.565034200029913,1
5177,104,Larynx,Right cTBS,Cons,Clear,30,4,1,0.567259900039062,1
5178,104,Larynx,Right cTBS,Cons,Clear,31,3,1,0.583339000004344,1
5179,104,Larynx,Right cTBS,Cons,Clear,32,4,1,0.535419000021648,1
5180,104,Larynx,Right cTBS,Cons,Clear,33,5,1,0.487368400034029,1
5181,104,Larynx,Right cTBS,Cons,Clear,34,1,0,0.5180290000280371,1
5182,104,Larynx,Right cTBS,Cons,Clear,35,4,1,0.599870700039901,1
5183,104,Larynx,Right cTBS,Cons,Clear,36,2,0,0.7310270000016321,1
5184,104,Larynx,Right cTBS,Cons,Clear,37,2,0,0.648774100001901,1
5185,104,Larynx,Right cTBS,Cons,Clear,38,3,1,0.548536599962972,1
5186,104,Larynx,Right cTBS,Cons,Clear,39,1,0,0.5477242000051771,1
5187,104,Larynx,Right cTBS,Cons,Clear,40,3,1,0.544794900051784,1
5188,104,Larynx,Right cTBS,Cons,Clear,41,3,1,0.6065440999809649,1
5189,104,Larynx,Right cTBS,Cons,Clear,42,5,1,0.616566399985459,1
5190,104,Larynx,Right cTBS,Cons,Clear,43,1,0,0.529647400020622,1
5191,104,Larynx,Right cTBS,Cons,Clear,44,2,0,0.573743300046772,1
5192,104,Larynx,Right cTBS,Cons,Clear,45,3,1,0.609023900004104,1
5193,104,Larynx,Right cTBS,Cons,Clear,46,2,0,0.579140400048345,1
5194,104,Larynx,Right cTBS,Cons,Clear,47,2,0,0.501136899983976,1
5195,104,Larynx,Right cTBS,Cons,Clear,48,5,1,0.6298528999905101,1
5196,104,Larynx,Right cTBS,Cons,Clear,49,4,1,0.511990199971478,1
5197,104,Larynx,Right cTBS,Cons,Clear,50,5,1,0.516864300007001,1
5198,104,Larynx,Right cTBS,Cons,Clear,51,1,0,0.50657389999833,1
5199,104,Larynx,Right cTBS,Cons,Clear,52,1,0,0.540156000002753,1
5200,104,Larynx,Right cTBS,Cons,Clear,53,4,1,0.6000899000209761,1
5201,104,Larynx,Right cTBS,Cons,Clear,54,5,1,0.53033499995945,1
5202,104,Larynx,Right cTBS,Cons,Clear,55,2,0,0.507837899960577,1
5203,104,Larynx,Right cTBS,Cons,Clear,56,4,1,0.599585500021931,1
5204,104,Larynx,Right cTBS,Cons,Clear,57,4,1,0.4514671000069939,1
5205,104,Larynx,Right cTBS,Cons,Clear,58,3,1,0.7962966999621129,1
5206,104,Larynx,Right cTBS,Cons,Clear,59,3,1,0.497780000034254,1
5207,104,Larynx,Right cTBS,Cons,Clear,60,2,0,0.6500370000139809,1
5208,104,Larynx,Right cTBS,Cons,Clear,61,1,0,0.5476615999941711,1
5209,104,Larynx,Right cTBS,Cons,Clear,62,4,1,0.552481600025203,1
5210,104,Larynx,Right cTBS,Cons,Clear,63,3,1,0.49257790000410795,1
5211,104,Larynx,Right cTBS,Cons,Clear,64,3,0,0.6770944000454621,1
5212,104,Larynx,Right cTBS,Cons,Clear,65,3,1,0.5674326999578629,1
5213,104,Larynx,Right cTBS,Cons,Clear,66,1,0,0.543837799981702,1
5214,104,Larynx,Right cTBS,Cons,Clear,67,5,1,0.624049600039143,1
5215,104,Larynx,Right cTBS,Cons,Clear,68,2,0,0.603027699980885,1
5216,104,Larynx,Right cTBS,Cons,Clear,69,4,1,0.499540799995884,1
5217,104,Larynx,Right cTBS,Cons,Clear,70,2,0,0.478075299994089,1
5218,104,Larynx,Right cTBS,Cons,Clear,71,3,1,0.5561855000560171,1
5219,104,Larynx,Right cTBS,Cons,Clear,72,3,1,0.583421499992255,1
5220,104,Larynx,Right cTBS,Cons,Clear,73,2,0,0.523572000034619,1
5221,104,Larynx,Right cTBS,Cons,Clear,74,4,1,0.611367799981963,1
5222,104,Larynx,Right cTBS,Cons,Clear,75,3,1,0.543161599955056,1
5223,104,Larynx,Right cTBS,Cons,Clear,76,5,1,0.569706899987068,1
5224,104,Larynx,Right cTBS,Cons,Clear,77,1,0,0.50112850003643,1
5225,104,Larynx,Right cTBS,Cons,Clear,78,4,1,0.503225499996915,1
5226,104,Larynx,Right cTBS,Cons,Clear,79,5,1,0.665485800011083,1
5227,104,Larynx,Right cTBS,Cons,Clear,80,3,0,0.639703499968164,1
5228,104,Larynx,Right cTBS,Cons,Clear,81,3,0,0.6476958999992349,1
5229,104,Larynx,Right cTBS,Cons,Clear,82,4,1,0.539151499979198,1
5230,104,Larynx,Right cTBS,Cons,Clear,83,3,1,0.49212710000574605,1
5231,104,Larynx,Right cTBS,Cons,Clear,84,4,1,0.566538299957756,1
5232,104,Larynx,Right cTBS,Cons,Clear,85,1,0,0.774829400004819,1
5233,104,Larynx,Right cTBS,Cons,Clear,86,3,1,0.574331199983135,1
5234,104,Larynx,Right cTBS,Cons,Clear,87,2,0,0.702561200014316,1
5235,104,Larynx,Right cTBS,Cons,Clear,88,1,0,0.574526100012008,1
5236,104,Larynx,Right cTBS,Cons,Clear,89,4,1,0.504467799968552,1
5237,104,Larynx,Right cTBS,Cons,Clear,90,3,1,0.538814699975774,1
5238,104,Larynx,Right cTBS,Cons,Clear,91,3,1,0.5783908000448721,1
5239,104,Larynx,Right cTBS,Cons,Clear,92,1,0,0.5429338000249121,1
5240,104,Larynx,Right cTBS,Cons,Clear,93,5,1,0.656591000035405,1
5241,104,Larynx,Right cTBS,Cons,Clear,94,2,0,0.554139700019732,1
5242,104,Larynx,Right cTBS,Cons,Clear,95,1,0,0.515093900030479,1
5243,104,Larynx,Right cTBS,Cons,Clear,96,4,1,0.588270700012799,1
5244,104,Larynx,Right cTBS,Cons,Clear,97,4,1,0.7018189000082199,1
5245,104,Larynx,Right cTBS,Cons,Clear,98,2,0,0.634535799967125,1
5246,104,Larynx,Right cTBS,Cons,Clear,99,2,0,0.5528380000032479,1
5247,104,Larynx,Right cTBS,Cons,Clear,100,4,1,0.567098899977282,1
5248,104,Larynx,Right cTBS,Cons,Clear,101,3,1,0.6872711999458261,1
5249,104,Larynx,Right cTBS,Cons,Clear,102,2,0,0.549780500004999,1
5250,104,Larynx,Right cTBS,Cons,Clear,103,3,1,0.580664700013585,1
5251,104,Larynx,Right cTBS,Cons,Clear,104,3,1,0.482202499988489,1
5252,104,Larynx,Right cTBS,Cons,Clear,105,5,1,0.62981710000895,1
5253,104,Larynx,Right cTBS,Cons,Clear,106,2,0,0.521855899947695,1
5254,104,Larynx,Right cTBS,Cons,Clear,107,2,0,0.50261429999955,1
5255,104,Larynx,Right cTBS,Cons,Clear,108,4,1,0.464829800010193,1
5256,104,Larynx,Right cTBS,Cons,Clear,109,5,1,0.480392199999187,1
5257,104,Larynx,Right cTBS,Cons,Clear,110,1,0,0.488391900027636,1
5258,104,Larynx,Right cTBS,Cons,Clear,111,5,1,0.5931661000358871,1
5259,104,Larynx,Right cTBS,Cons,Clear,112,1,0,0.47467140003573105,1
5260,104,Larynx,Right cTBS,Cons,Clear,113,4,1,0.559341999993194,1
5261,104,Larynx,Right cTBS,Cons,Clear,114,3,1,0.583654100017156,1
5262,104,Larynx,Right cTBS,Cons,Clear,115,2,0,0.5758111000177449,1
5263,104,Larynx,Right cTBS,Cons,Clear,116,3,0,0.59910279995529,1
5264,104,Larynx,Right cTBS,Cons,Clear,117,5,1,0.573584099998698,1
5265,104,Larynx,Right cTBS,Cons,Clear,118,4,1,0.454761699947994,1
5266,104,Larynx,Right cTBS,Cons,Clear,119,5,1,0.544932799995877,1
5267,104,Larynx,Right cTBS,Cons,Clear,120,2,0,0.590256199997384,1
5268,104,Larynx,Right cTBS,Cons,Clear,121,3,0,0.672016199969221,1
5269,104,Larynx,Right cTBS,Cons,Clear,122,4,1,0.5148850000114179,1
5270,104,Larynx,Right cTBS,Cons,Clear,123,4,1,0.5008681999752299,1
5271,104,Larynx,Right cTBS,Cons,Clear,124,2,1,0.6018340999726209,1
5272,104,Larynx,Right cTBS,Cons,Clear,125,2,0,0.5868081999942659,1
5273,104,Larynx,Right cTBS,Cons,Clear,126,3,1,0.6811786000034771,1
5274,104,Larynx,Right cTBS,Cons,Clear,127,5,1,0.512495299975853,1
5275,104,Larynx,Right cTBS,Cons,Clear,128,1,0,0.5269436000380671,1
5276,104,Larynx,Right cTBS,Cons,Clear,129,4,1,0.5943260000203741,1
5277,104,Larynx,Right cTBS,Cons,Clear,130,3,1,0.532152300002053,1
5278,104,Larynx,Right cTBS,Cons,Clear,131,1,0,0.663172300031874,1
5279,104,Larynx,Right cTBS,Cons,Clear,132,3,0,0.563734599971212,1
5280,104,Larynx,Right cTBS,Cons,Clear,133,3,1,0.49874730000738104,1
5281,104,Larynx,Right cTBS,Cons,Clear,134,1,0,0.567555500019807,1
5282,104,Larynx,Right cTBS,Cons,Clear,135,2,0,0.753905699995812,1
5283,104,Larynx,Right cTBS,Cons,Clear,136,5,1,0.47215019998839103,1
5284,104,Larynx,Right cTBS,Cons,Clear,137,5,1,0.48099319997709206,1
5285,104,Larynx,Right cTBS,Cons,Clear,138,4,1,0.5033277000184171,1
5286,104,Larynx,Right cTBS,Cons,Clear,139,3,1,0.5252009999821889,1
5287,104,Larynx,Right cTBS,Cons,Clear,140,3,1,0.5955697000026701,1
5288,104,Larynx,Right cTBS,Cons,Clear,141,5,1,0.5320784999639729,1
5289,104,Larynx,Right cTBS,Cons,Clear,142,4,1,0.7355753000010741,1
5290,104,Larynx,Right cTBS,Cons,Clear,143,3,1,0.44942909997189395,1
5291,104,Larynx,Right cTBS,Cons,Clear,144,2,1,0.4599100999766961,1
5292,104,Larynx,Right cTBS,Cons,Clear,145,4,1,0.7704870000015941,1
5293,104,Larynx,Right cTBS,Cons,Clear,146,1,0,0.54524309997214,1
5294,104,Larynx,Right cTBS,Cons,Clear,147,1,0,0.471637999988161,1
5295,104,Larynx,Right cTBS,Cons,Clear,148,3,1,0.673090799944475,1
5296,104,Larynx,Right cTBS,Cons,Clear,149,2,0,0.5682931999908759,1
5297,104,Larynx,Right cTBS,Cons,Clear,150,1,0,0.5116480999859051,1
5298,104,Larynx,Right cTBS,Cons,Clear,151,5,1,0.492390000028536,1
5299,104,Larynx,Right cTBS,Cons,Clear,152,2,0,0.667000300018117,1
5300,104,Larynx,Right cTBS,Cons,Clear,153,4,1,0.43759379995753994,1
5301,104,Larynx,Right cTBS,Cons,Clear,154,3,0,0.569425900001079,1
5302,104,Larynx,Right cTBS,Cons,Clear,155,3,1,0.6483600999927149,1
5303,104,Larynx,Right cTBS,Cons,Clear,156,2,0,0.679249600041658,1
5772,104,Larynx,Sham,Cons,Clear,1,5,1,0.54217620001873,1
5773,104,Larynx,Sham,Cons,Clear,2,4,1,0.473736500018276,1
5774,104,Larynx,Sham,Cons,Clear,3,5,1,0.565381099993829,1
5775,104,Larynx,Sham,Cons,Clear,4,1,0,0.48616480000782797,1
5776,104,Larynx,Sham,Cons,Clear,5,3,1,0.5061584000359289,1
5777,104,Larynx,Sham,Cons,Clear,6,2,0,0.4990793000324629,1
5778,104,Larynx,Sham,Cons,Clear,7,3,1,0.533470900030807,1
5779,104,Larynx,Sham,Cons,Clear,8,5,1,0.505453899968416,1
5780,104,Larynx,Sham,Cons,Clear,9,2,0,0.522840399993584,1
5781,104,Larynx,Sham,Cons,Clear,10,4,1,0.513250000018161,1
5782,104,Larynx,Sham,Cons,Clear,11,5,1,0.4591902999673039,1
5783,104,Larynx,Sham,Cons,Clear,12,2,0,0.630246600019746,1
5784,104,Larynx,Sham,Cons,Clear,13,2,1,0.5153674000175671,1
5785,104,Larynx,Sham,Cons,Clear,14,4,1,0.472850700025447,1
5786,104,Larynx,Sham,Cons,Clear,15,1,0,0.49339359998703003,1
5787,104,Larynx,Sham,Cons,Clear,16,3,1,0.527748099993914,1
5788,104,Larynx,Sham,Cons,Clear,17,3,1,0.5583371000248011,1
5789,104,Larynx,Sham,Cons,Clear,18,3,1,0.46111649996601,1
5790,104,Larynx,Sham,Cons,Clear,19,5,1,0.5770577000221241,1
5791,104,Larynx,Sham,Cons,Clear,20,2,0,0.525021100009326,1
5792,104,Larynx,Sham,Cons,Clear,21,1,0,0.619894800009206,1
5793,104,Larynx,Sham,Cons,Clear,22,2,0,0.647787900001276,1
5794,104,Larynx,Sham,Cons,Clear,23,4,1,0.527280100039206,1
5795,104,Larynx,Sham,Cons,Clear,24,3,1,0.44842109997989604,1
5796,104,Larynx,Sham,Cons,Clear,25,4,1,0.488744899979793,1
5797,104,Larynx,Sham,Cons,Clear,26,1,1,0.527383700013161,1
5798,104,Larynx,Sham,Cons,Clear,27,5,1,0.514945700007956,1
5799,104,Larynx,Sham,Cons,Clear,28,1,0,0.44627189997117994,1
5800,104,Larynx,Sham,Cons,Clear,29,2,0,0.6161940000019971,1
5801,104,Larynx,Sham,Cons,Clear,30,3,1,0.455433700000867,1
5802,104,Larynx,Sham,Cons,Clear,31,4,1,0.5481247999705371,1
5803,104,Larynx,Sham,Cons,Clear,32,3,1,0.485210099956021,1
5804,104,Larynx,Sham,Cons,Clear,33,1,0,0.513042300008237,1
5805,104,Larynx,Sham,Cons,Clear,34,4,1,0.871084999991581,1
5806,104,Larynx,Sham,Cons,Clear,35,3,1,0.45746450003934996,1
5807,104,Larynx,Sham,Cons,Clear,36,2,0,0.573562600009609,1
5808,104,Larynx,Sham,Cons,Clear,37,3,1,0.462526999996044,1
5809,104,Larynx,Sham,Cons,Clear,38,4,1,0.564457700005732,1
5810,104,Larynx,Sham,Cons,Clear,39,3,1,0.532685099984519,1
5811,104,Larynx,Sham,Cons,Clear,40,4,1,0.5131989999790679,1
5812,104,Larynx,Sham,Cons,Clear,41,2,0,0.5344274999806661,1
5813,104,Larynx,Sham,Cons,Clear,42,2,0,0.616808300022967,1
5814,104,Larynx,Sham,Cons,Clear,43,3,1,0.42841319995932303,1
5815,104,Larynx,Sham,Cons,Clear,44,3,1,0.5148760000010949,1
5816,104,Larynx,Sham,Cons,Clear,45,3,1,0.49283830000786105,1
5817,104,Larynx,Sham,Cons,Clear,46,4,1,0.484478899976239,1
5818,104,Larynx,Sham,Cons,Clear,47,1,0,0.5019393000402489,1
5819,104,Larynx,Sham,Cons,Clear,48,1,0,0.56290869996883,1
5820,104,Larynx,Sham,Cons,Clear,49,2,1,0.544558499997947,1
5821,104,Larynx,Sham,Cons,Clear,50,2,1,0.573706800001673,1
5822,104,Larynx,Sham,Cons,Clear,51,4,0,0.5365358999697489,1
5823,104,Larynx,Sham,Cons,Clear,52,5,1,0.528892100031953,1
5824,104,Larynx,Sham,Cons,Clear,53,5,1,0.5170103000127709,1
5825,104,Larynx,Sham,Cons,Clear,54,3,1,0.443576999998186,1
5826,104,Larynx,Sham,Cons,Clear,55,2,0,0.581511999946088,1
5827,104,Larynx,Sham,Cons,Clear,56,4,1,0.5461152000352739,1
5828,104,Larynx,Sham,Cons,Clear,57,1,0,0.47977859998354705,1
5829,104,Larynx,Sham,Cons,Clear,58,1,0,0.597954800003208,1
5830,104,Larynx,Sham,Cons,Clear,59,3,1,0.80266849999316,1
5831,104,Larynx,Sham,Cons,Clear,60,3,1,0.38125279999803796,1
5832,104,Larynx,Sham,Cons,Clear,61,2,1,0.413126499974169,1
5833,104,Larynx,Sham,Cons,Clear,62,5,1,0.546250400017016,1
5834,104,Larynx,Sham,Cons,Clear,63,4,1,0.465906099998392,1
5835,104,Larynx,Sham,Cons,Clear,64,5,1,0.5102909000124779,1
5836,104,Larynx,Sham,Cons,Clear,65,3,1,0.476481700025033,1
5837,104,Larynx,Sham,Cons,Clear,66,4,1,0.48661359999096,1
5838,104,Larynx,Sham,Cons,Clear,67,3,0,0.5267224999843171,1
5839,104,Larynx,Sham,Cons,Clear,68,1,0,0.501445500005502,1
5840,104,Larynx,Sham,Cons,Clear,69,5,1,0.54137140000239,1
5841,104,Larynx,Sham,Cons,Clear,70,1,0,0.486798400001135,1
5842,104,Larynx,Sham,Cons,Clear,71,3,1,0.453014700033236,1
5843,104,Larynx,Sham,Cons,Clear,72,5,1,0.590146999980789,1
5844,104,Larynx,Sham,Cons,Clear,73,3,1,0.422118399990723,1
5845,104,Larynx,Sham,Cons,Clear,74,3,1,0.5755529000307429,1
5846,104,Larynx,Sham,Cons,Clear,75,2,1,0.465502400009427,1
5847,104,Larynx,Sham,Cons,Clear,76,4,1,0.529361900000367,1
5848,104,Larynx,Sham,Cons,Clear,77,2,0,0.515499500033911,1
5849,104,Larynx,Sham,Cons,Clear,78,4,1,0.44251799996709495,1
5850,104,Larynx,Sham,Cons,Clear,79,2,0,0.507927200000267,1
5851,104,Larynx,Sham,Cons,Clear,80,3,1,0.440376899961848,1
5852,104,Larynx,Sham,Cons,Clear,81,5,1,0.5064943000325001,1
5853,104,Larynx,Sham,Cons,Clear,82,4,1,0.462487900047563,1
5854,104,Larynx,Sham,Cons,Clear,83,1,0,0.5009424999589099,1
5855,104,Larynx,Sham,Cons,Clear,84,2,0,0.5467011999571699,1
5856,104,Larynx,Sham,Cons,Clear,85,5,1,0.47329110000282504,1
5857,104,Larynx,Sham,Cons,Clear,86,1,0,0.6495555000146851,1
5858,104,Larynx,Sham,Cons,Clear,87,3,1,0.6062761999783111,1
5859,104,Larynx,Sham,Cons,Clear,88,1,0,0.572515000007115,1
5860,104,Larynx,Sham,Cons,Clear,89,3,1,0.499679500004277,1
5861,104,Larynx,Sham,Cons,Clear,90,1,0,0.610576399951242,1
5862,104,Larynx,Sham,Cons,Clear,91,4,1,0.546483399986755,1
5863,104,Larynx,Sham,Cons,Clear,92,5,1,0.46723989996826293,1
5864,104,Larynx,Sham,Cons,Clear,93,4,1,0.479005699977279,1
5865,104,Larynx,Sham,Cons,Clear,94,4,1,0.5714590999996291,1
5866,104,Larynx,Sham,Cons,Clear,95,5,1,0.45077739999396704,1
5867,104,Larynx,Sham,Cons,Clear,96,2,0,0.538016000005882,1
5868,104,Larynx,Sham,Cons,Clear,97,2,0,0.642330300004687,1
5869,104,Larynx,Sham,Cons,Clear,98,5,1,0.6043678999994879,1
5870,104,Larynx,Sham,Cons,Clear,99,3,1,0.8756600000197071,1
5871,104,Larynx,Sham,Cons,Clear,100,3,1,0.544679500046186,1
5872,104,Larynx,Sham,Cons,Clear,101,4,1,0.546213300025556,1
5873,104,Larynx,Sham,Cons,Clear,102,2,0,0.479171400016639,1
5874,104,Larynx,Sham,Cons,Clear,103,2,0,0.45737230003578605,1
5875,104,Larynx,Sham,Cons,Clear,104,1,0,0.565504500002135,1
5876,104,Larynx,Sham,Cons,Clear,105,4,1,0.452984999981709,1
5877,104,Larynx,Sham,Cons,Clear,106,3,1,0.539315500005614,1
5878,104,Larynx,Sham,Cons,Clear,107,3,1,0.49168530001770705,1
5879,104,Larynx,Sham,Cons,Clear,108,3,1,0.548901900008786,1
5880,104,Larynx,Sham,Cons,Clear,109,4,1,0.507146099989768,1
5881,104,Larynx,Sham,Cons,Clear,110,5,1,0.510643300018273,1
5882,104,Larynx,Sham,Cons,Clear,111,2,0,0.510525799996685,1
5883,104,Larynx,Sham,Cons,Clear,112,2,0,0.46232210000744106,1
5884,104,Larynx,Sham,Cons,Clear,113,3,1,0.577683099952992,1
5885,104,Larynx,Sham,Cons,Clear,114,3,1,0.406073999998625,1
5886,104,Larynx,Sham,Cons,Clear,115,3,1,0.491619299980812,1
5887,104,Larynx,Sham,Cons,Clear,116,1,0,0.45970150001812704,1
5888,104,Larynx,Sham,Cons,Clear,117,4,0,0.467920599970967,1
5889,104,Larynx,Sham,Cons,Clear,118,2,0,0.582914099970367,1
5890,104,Larynx,Sham,Cons,Clear,119,4,1,0.713134900026489,1
5891,104,Larynx,Sham,Cons,Clear,120,2,0,0.584985799971037,1
5892,104,Larynx,Sham,Cons,Clear,121,3,0,0.537598700029776,1
5893,104,Larynx,Sham,Cons,Clear,122,2,0,0.691351999994367,1
5894,104,Larynx,Sham,Cons,Clear,123,5,1,0.50302990002092,1
5895,104,Larynx,Sham,Cons,Clear,124,3,0,0.6628750999807379,1
5896,104,Larynx,Sham,Cons,Clear,125,5,1,0.688954600016586,1
5897,104,Larynx,Sham,Cons,Clear,126,4,1,0.419507600017823,1
5898,104,Larynx,Sham,Cons,Clear,127,4,1,0.483143899997231,1
5899,104,Larynx,Sham,Cons,Clear,128,1,0,0.492737900000066,1
5900,104,Larynx,Sham,Cons,Clear,129,3,1,0.472079499973916,1
5901,104,Larynx,Sham,Cons,Clear,130,5,1,0.53986179997446,1
5902,104,Larynx,Sham,Cons,Clear,131,4,1,0.673776000039652,1
5903,104,Larynx,Sham,Cons,Clear,132,2,0,0.525274000014178,1
5904,104,Larynx,Sham,Cons,Clear,133,3,0,0.581656299997121,1
5905,104,Larynx,Sham,Cons,Clear,134,2,0,0.606263499998022,1
5906,104,Larynx,Sham,Cons,Clear,135,5,1,0.569156599987764,1
5907,104,Larynx,Sham,Cons,Clear,136,3,1,0.477904599974863,1
5908,104,Larynx,Sham,Cons,Clear,137,3,1,0.492093099979684,1
5909,104,Larynx,Sham,Cons,Clear,138,2,0,0.567319600027986,1
5910,104,Larynx,Sham,Cons,Clear,139,1,0,0.614731899986509,1
5911,104,Larynx,Sham,Cons,Clear,140,4,1,0.463446200010367,1
5912,104,Larynx,Sham,Cons,Clear,141,1,0,0.496634599985555,1
5913,104,Larynx,Sham,Cons,Clear,142,3,1,0.494569499976933,1
5914,104,Larynx,Sham,Cons,Clear,143,4,0,0.513206099974923,1
5915,104,Larynx,Sham,Cons,Clear,144,4,0,0.511457599990536,1
5916,104,Larynx,Sham,Cons,Clear,145,1,0,0.673811900021974,1
5917,104,Larynx,Sham,Cons,Clear,146,2,0,0.6609083000221291,1
5918,104,Larynx,Sham,Cons,Clear,147,3,1,0.7313297000364399,1
5919,104,Larynx,Sham,Cons,Clear,148,5,1,0.457507600018289,1
5920,104,Larynx,Sham,Cons,Clear,149,4,1,0.468867199961096,1
5921,104,Larynx,Sham,Cons,Clear,150,5,1,0.43967539997538596,1
5922,104,Larynx,Sham,Cons,Clear,151,3,1,0.45602490002056606,1
5923,104,Larynx,Sham,Cons,Clear,152,2,0,0.50581299996702,1
5924,104,Larynx,Sham,Cons,Clear,153,3,0,0.493036300002132,1
5925,104,Larynx,Sham,Cons,Clear,154,3,0,0.379303699999582,1
5926,104,Larynx,Sham,Cons,Clear,155,1,1,0.36185420001857,1
5927,104,Larynx,Sham,Cons,Clear,156,1,0,0.50008169998182,1
8268,123,Larynx,Right cTBS,Cons,Clear,1,5,1,0.8981657999102031,1
8269,123,Larynx,Right cTBS,Cons,Clear,2,2,0,0.587216500076465,1
8270,123,Larynx,Right cTBS,Cons,Clear,3,2,0,0.571882799966261,1
8271,123,Larynx,Right cTBS,Cons,Clear,4,4,1,0.38794679997954495,1
8272,123,Larynx,Right cTBS,Cons,Clear,5,4,1,0.48499519994948104,1
8273,123,Larynx,Right cTBS,Cons,Clear,6,1,0,0.45697379997000104,1
8274,123,Larynx,Right cTBS,Cons,Clear,7,4,1,0.416793600074016,1
8275,123,Larynx,Right cTBS,Cons,Clear,8,2,1,0.510612800018862,1
8276,123,Larynx,Right cTBS,Cons,Clear,9,1,0,0.40601839998271294,1
8277,123,Larynx,Right cTBS,Cons,Clear,10,5,1,0.5350084000965579,1
8278,123,Larynx,Right cTBS,Cons,Clear,11,3,1,0.4251821999205279,1
8279,123,Larynx,Right cTBS,Cons,Clear,12,4,1,0.575316799920984,1
8280,123,Larynx,Right cTBS,Cons,Clear,13,3,1,0.504415599978529,1
8281,123,Larynx,Right cTBS,Cons,Clear,14,2,1,0.47145069995895,1
8282,123,Larynx,Right cTBS,Cons,Clear,15,1,0,0.43576439993921706,1
8283,123,Larynx,Right cTBS,Cons,Clear,16,4,1,0.446999700041488,1
8284,123,Larynx,Right cTBS,Cons,Clear,17,3,1,0.550349700031802,1
8285,123,Larynx,Right cTBS,Cons,Clear,18,1,0,0.41517090005800106,1
8286,123,Larynx,Right cTBS,Cons,Clear,19,2,0,0.393532200017944,1
8287,123,Larynx,Right cTBS,Cons,Clear,20,1,0,0.639672599965706,1
8288,123,Larynx,Right cTBS,Cons,Clear,21,5,1,0.420645499951206,1
8289,123,Larynx,Right cTBS,Cons,Clear,22,3,1,0.5985571000492199,1
8290,123,Larynx,Right cTBS,Cons,Clear,23,3,1,0.415123699931428,1
8291,123,Larynx,Right cTBS,Cons,Clear,24,3,1,0.590579500072636,1
8292,123,Larynx,Right cTBS,Cons,Clear,25,3,1,0.504423700040206,1
8293,123,Larynx,Right cTBS,Cons,Clear,26,1,0,0.47110490000341104,1
8294,123,Larynx,Right cTBS,Cons,Clear,27,2,1,0.48091509996447707,1
8295,123,Larynx,Right cTBS,Cons,Clear,28,4,1,0.324845400056802,1
8296,123,Larynx,Right cTBS,Cons,Clear,29,5,1,0.356994300032966,1
8297,123,Larynx,Right cTBS,Cons,Clear,30,4,1,0.38090950006153396,1
8298,123,Larynx,Right cTBS,Cons,Clear,31,5,1,0.49277679994702295,1
8299,123,Larynx,Right cTBS,Cons,Clear,32,3,1,0.5248482000315561,1
8300,123,Larynx,Right cTBS,Cons,Clear,33,4,1,0.578656900092028,1
8301,123,Larynx,Right cTBS,Cons,Clear,34,2,1,0.5342144999885929,1
8302,123,Larynx,Right cTBS,Cons,Clear,35,3,1,1.1229460999602499,1
8303,123,Larynx,Right cTBS,Cons,Clear,36,3,1,1.00727760000154,1
8304,123,Larynx,Right cTBS,Cons,Clear,37,3,1,1.3958826999878502,1
8305,123,Larynx,Right cTBS,Cons,Clear,38,5,0,0.529731299960986,1
8306,123,Larynx,Right cTBS,Cons,Clear,39,2,0,0.8124481000704691,1
8307,123,Larynx,Right cTBS,Cons,Clear,40,1,0,0.789488499984145,1
8308,123,Larynx,Right cTBS,Cons,Clear,41,2,0,0.7851216999115419,1
8309,123,Larynx,Right cTBS,Cons,Clear,42,5,1,0.43724400002975,1
8310,123,Larynx,Right cTBS,Cons,Clear,43,4,1,0.431220900034532,1
8311,123,Larynx,Right cTBS,Cons,Clear,44,4,1,0.564913299982436,1
8312,123,Larynx,Right cTBS,Cons,Clear,45,1,0,0.5774308000691241,1
8313,123,Larynx,Right cTBS,Cons,Clear,46,3,1,0.40144769998733,1
8314,123,Larynx,Right cTBS,Cons,Clear,47,3,1,0.566637599957176,1
8315,123,Larynx,Right cTBS,Cons,Clear,48,3,1,0.535856699920259,1
8316,123,Larynx,Right cTBS,Cons,Clear,49,1,0,0.47444430005271004,1
8317,123,Larynx,Right cTBS,Cons,Clear,50,3,1,0.492597300093621,1
8318,123,Larynx,Right cTBS,Cons,Clear,51,1,0,0.5897745999973271,1
8319,123,Larynx,Right cTBS,Cons,Clear,52,3,1,0.349966499954462,1
8320,123,Larynx,Right cTBS,Cons,Clear,53,2,1,0.547321800026111,1
8321,123,Larynx,Right cTBS,Cons,Clear,54,5,1,0.479493299964815,1
8322,123,Larynx,Right cTBS,Cons,Clear,55,1,0,0.448251100024208,1
8323,123,Larynx,Right cTBS,Cons,Clear,56,3,1,0.8099823999218639,1
8324,123,Larynx,Right cTBS,Cons,Clear,57,2,1,0.599954199977219,1
8325,123,Larynx,Right cTBS,Cons,Clear,58,3,1,0.652398999896832,1
8326,123,Larynx,Right cTBS,Cons,Clear,59,2,1,0.5615711000282321,1
8327,123,Larynx,Right cTBS,Cons,Clear,60,3,1,0.476376100094058,1
8328,123,Larynx,Right cTBS,Cons,Clear,61,5,1,0.5624651000835,1
8329,123,Larynx,Right cTBS,Cons,Clear,62,4,1,0.57761129993014,1
8330,123,Larynx,Right cTBS,Cons,Clear,63,4,1,1.5607267000013998,1
8331,123,Larynx,Right cTBS,Cons,Clear,64,2,1,0.762357200030237,1
8332,123,Larynx,Right cTBS,Cons,Clear,65,4,1,1.03950489999261,1
8333,123,Larynx,Right cTBS,Cons,Clear,66,4,0,0.49128239997662604,1
8334,123,Larynx,Right cTBS,Cons,Clear,67,4,1,0.516778800054453,1
8335,123,Larynx,Right cTBS,Cons,Clear,68,5,1,0.429411599994637,1
8336,123,Larynx,Right cTBS,Cons,Clear,69,3,1,0.715648700017482,1
8337,123,Larynx,Right cTBS,Cons,Clear,70,2,1,0.579382700030692,1
8338,123,Larynx,Right cTBS,Cons,Clear,71,2,0,0.89969780005049,1
8339,123,Larynx,Right cTBS,Cons,Clear,72,5,1,0.545808400027454,1
8340,123,Larynx,Right cTBS,Cons,Clear,73,1,0,0.6689937999472021,1
8341,123,Larynx,Right cTBS,Cons,Clear,74,3,1,0.36218020005617296,1
8342,123,Larynx,Right cTBS,Cons,Clear,75,4,1,0.354548800038174,1
8343,123,Larynx,Right cTBS,Cons,Clear,76,2,1,0.354737399960868,1
8344,123,Larynx,Right cTBS,Cons,Clear,77,5,1,0.352755300002173,1
8345,123,Larynx,Right cTBS,Cons,Clear,78,3,1,0.38283539994154103,1
8346,123,Larynx,Right cTBS,Cons,Clear,79,1,0,0.637104899971746,1
8347,123,Larynx,Right cTBS,Cons,Clear,80,1,1,0.35645870002917895,1
8348,123,Larynx,Right cTBS,Cons,Clear,81,4,1,0.757148300064728,1
8349,123,Larynx,Right cTBS,Cons,Clear,82,4,1,0.642528200056404,1
8350,123,Larynx,Right cTBS,Cons,Clear,83,4,1,0.42280260007828496,1
8351,123,Larynx,Right cTBS,Cons,Clear,84,4,1,0.547303700004704,1
8352,123,Larynx,Right cTBS,Cons,Clear,85,4,1,0.451191200059839,1
8353,123,Larynx,Right cTBS,Cons,Clear,86,2,1,0.44415049999952294,1
8354,123,Larynx,Right cTBS,Cons,Clear,87,2,0,0.7418073998996991,1
8355,123,Larynx,Right cTBS,Cons,Clear,88,3,1,0.6207938001025469,1
8356,123,Larynx,Right cTBS,Cons,Clear,89,3,1,0.523255600011908,1
8357,123,Larynx,Right cTBS,Cons,Clear,90,3,1,0.541060799965635,1
8358,123,Larynx,Right cTBS,Cons,Clear,91,1,0,0.635626400006004,1
8359,123,Larynx,Right cTBS,Cons,Clear,92,3,1,0.77259069995489,1
8360,123,Larynx,Right cTBS,Cons,Clear,93,5,1,0.636575000011362,1
8361,123,Larynx,Right cTBS,Cons,Clear,94,4,1,0.491139500052668,1
8362,123,Larynx,Right cTBS,Cons,Clear,95,5,1,0.41047430003527596,1
8363,123,Larynx,Right cTBS,Cons,Clear,96,3,1,0.6429706999333579,1
8364,123,Larynx,Right cTBS,Cons,Clear,97,3,1,0.48084160010330396,1
8365,123,Larynx,Right cTBS,Cons,Clear,98,3,1,0.673911700025201,1
8366,123,Larynx,Right cTBS,Cons,Clear,99,3,1,0.709852900006808,1
8367,123,Larynx,Right cTBS,Cons,Clear,100,2,0,0.5230806999607011,1
8368,123,Larynx,Right cTBS,Cons,Clear,101,2,1,0.923733899951912,1
8369,123,Larynx,Right cTBS,Cons,Clear,102,5,1,0.543018900090829,1
8370,123,Larynx,Right cTBS,Cons,Clear,103,5,1,0.479183800052851,1
8371,123,Larynx,Right cTBS,Cons,Clear,104,2,1,0.763211900019087,1
8372,123,Larynx,Right cTBS,Cons,Clear,105,3,1,0.8233490000711751,1
8373,123,Larynx,Right cTBS,Cons,Clear,106,1,0,0.6589138000272211,1
8374,123,Larynx,Right cTBS,Cons,Clear,107,1,0,0.616664399974979,1
8375,123,Larynx,Right cTBS,Cons,Clear,108,3,1,0.3713397000683471,1
8376,123,Larynx,Right cTBS,Cons,Clear,109,3,1,0.377501699957065,1
8377,123,Larynx,Right cTBS,Cons,Clear,110,5,1,0.37036050006281607,1
8378,123,Larynx,Right cTBS,Cons,Clear,111,2,1,0.5271973999915639,1
8379,123,Larynx,Right cTBS,Cons,Clear,112,2,1,0.6891949999844661,1
8380,123,Larynx,Right cTBS,Cons,Clear,113,2,0,0.531883200048469,1
8381,123,Larynx,Right cTBS,Cons,Clear,114,4,1,0.378306900034659,1
8382,123,Larynx,Right cTBS,Cons,Clear,115,1,0,0.639052900020033,1
8383,123,Larynx,Right cTBS,Cons,Clear,116,4,1,0.343007699935697,1
8384,123,Larynx,Right cTBS,Cons,Clear,117,5,1,0.640605699969456,1
8385,123,Larynx,Right cTBS,Cons,Clear,118,4,1,0.38145430001895897,1
8386,123,Larynx,Right cTBS,Cons,Clear,119,3,1,0.4417994000250471,1
8387,123,Larynx,Right cTBS,Cons,Clear,120,1,0,0.40379000001121296,1
8388,123,Larynx,Right cTBS,Cons,Clear,121,3,1,0.41945049993228206,1
8389,123,Larynx,Right cTBS,Cons,Clear,122,3,1,0.44643969996832295,1
8390,123,Larynx,Right cTBS,Cons,Clear,123,3,1,0.594886500039138,1
8391,123,Larynx,Right cTBS,Cons,Clear,124,5,1,1.05559010000434,1
8392,123,Larynx,Right cTBS,Cons,Clear,125,5,1,0.759753899998032,1
8393,123,Larynx,Right cTBS,Cons,Clear,126,4,1,1.1762629000004399,1
8394,123,Larynx,Right cTBS,Cons,Clear,127,2,0,0.634392500040121,1
8395,123,Larynx,Right cTBS,Cons,Clear,128,3,1,0.36343280004803097,1
8396,123,Larynx,Right cTBS,Cons,Clear,129,3,1,0.7211384000256659,1
8397,123,Larynx,Right cTBS,Cons,Clear,130,2,1,0.8248480000765991,1
8398,123,Larynx,Right cTBS,Cons,Clear,131,3,1,0.6876239000121128,1
8399,123,Larynx,Right cTBS,Cons,Clear,132,4,1,1.09981669997796,1
8400,123,Larynx,Right cTBS,Cons,Clear,133,2,0,0.6775013000005861,1
8401,123,Larynx,Right cTBS,Cons,Clear,134,2,0,0.818635300034657,1
8402,123,Larynx,Right cTBS,Cons,Clear,135,1,0,0.667949400027283,1
8403,123,Larynx,Right cTBS,Cons,Clear,136,5,1,0.41622769995592496,1
8404,123,Larynx,Right cTBS,Cons,Clear,137,4,1,0.35644979996140996,1
8405,123,Larynx,Right cTBS,Cons,Clear,138,4,1,0.376458600047044,1
8406,123,Larynx,Right cTBS,Cons,Clear,139,4,1,0.517274900106713,1
8407,123,Larynx,Right cTBS,Cons,Clear,140,1,0,0.55194430006668,1
8408,123,Larynx,Right cTBS,Cons,Clear,141,3,1,0.402426899992861,1
8409,123,Larynx,Right cTBS,Cons,Clear,142,2,1,0.328661400009878,1
8410,123,Larynx,Right cTBS,Cons,Clear,143,5,1,0.29997309995815197,1
8411,123,Larynx,Right cTBS,Cons,Clear,144,5,1,0.440719099948183,1
8412,123,Larynx,Right cTBS,Cons,Clear,145,5,1,0.338280800031498,1
8413,123,Larynx,Right cTBS,Cons,Clear,146,1,0,0.6093635999131949,1
8414,123,Larynx,Right cTBS,Cons,Clear,147,4,1,0.46127520001027705,1
8415,123,Larynx,Right cTBS,Cons,Clear,148,3,1,0.41107569995801896,1
8416,123,Larynx,Right cTBS,Cons,Clear,149,3,1,0.361348500009626,1
8417,123,Larynx,Right cTBS,Cons,Clear,150,4,1,0.367250800016336,1
8418,123,Larynx,Right cTBS,Cons,Clear,151,2,1,0.162074499996379,1
8419,123,Larynx,Right cTBS,Cons,Clear,152,3,1,0.653906399966218,1
8420,123,Larynx,Right cTBS,Cons,Clear,153,1,0,0.579559099976905,1
8421,123,Larynx,Right cTBS,Cons,Clear,154,2,1,0.46271740004885903,1
8422,123,Larynx,Right cTBS,Cons,Clear,155,1,1,0.33044379996135803,1
8423,123,Larynx,Right cTBS,Cons,Clear,156,2,1,0.529278400004841,1
8892,123,Larynx,Sham,Cons,Clear,1,3,0,0.663217500085011,1
8893,123,Larynx,Sham,Cons,Clear,2,4,1,0.47877150005660996,1
8894,123,Larynx,Sham,Cons,Clear,3,2,1,0.609148100018501,1
8895,123,Larynx,Sham,Cons,Clear,4,5,1,0.41554849990643605,1
8896,123,Larynx,Sham,Cons,Clear,5,2,0,0.6487003999063751,1
8897,123,Larynx,Sham,Cons,Clear,6,3,1,0.541122099966742,1
8898,123,Larynx,Sham,Cons,Clear,7,2,1,0.40780780010391,1
8899,123,Larynx,Sham,Cons,Clear,8,5,1,0.36240109999198494,1
8900,123,Larynx,Sham,Cons,Clear,9,1,1,0.38000699994154297,1
8901,123,Larynx,Sham,Cons,Clear,10,3,1,0.48610830004327,1
8902,123,Larynx,Sham,Cons,Clear,11,4,1,0.43499349988997,1
8903,123,Larynx,Sham,Cons,Clear,12,3,1,0.414369500009343,1
8904,123,Larynx,Sham,Cons,Clear,13,5,1,0.496805800008588,1
8905,123,Larynx,Sham,Cons,Clear,14,4,1,0.45130209997296294,1
8906,123,Larynx,Sham,Cons,Clear,15,4,1,0.440384900080971,1
8907,123,Larynx,Sham,Cons,Clear,16,2,1,0.4033231000648811,1
8908,123,Larynx,Sham,Cons,Clear,17,4,1,0.569533100002445,1
8909,123,Larynx,Sham,Cons,Clear,18,3,1,0.4718284000409771,1
8910,123,Larynx,Sham,Cons,Clear,19,1,0,0.511027700034902,1
8911,123,Larynx,Sham,Cons,Clear,20,2,1,0.37663199997041397,1
8912,123,Larynx,Sham,Cons,Clear,21,3,1,0.497107499977574,1
8913,123,Larynx,Sham,Cons,Clear,22,5,1,0.390584000037052,1
8914,123,Larynx,Sham,Cons,Clear,23,4,1,0.433863999904133,1
8915,123,Larynx,Sham,Cons,Clear,24,1,0,0.528785500093363,1
8916,123,Larynx,Sham,Cons,Clear,25,5,1,0.47837350005284,1
8917,123,Larynx,Sham,Cons,Clear,26,2,1,0.346135700005107,1
8918,123,Larynx,Sham,Cons,Clear,27,3,1,0.5457629999145871,1
8919,123,Larynx,Sham,Cons,Clear,28,1,0,0.769922200008295,1
8920,123,Larynx,Sham,Cons,Clear,29,4,1,0.879807899938896,1
8921,123,Larynx,Sham,Cons,Clear,30,1,0,0.518930500023998,1
8922,123,Larynx,Sham,Cons,Clear,31,1,0,0.565632299985737,1
8923,123,Larynx,Sham,Cons,Clear,32,3,1,0.468460199888796,1
8924,123,Larynx,Sham,Cons,Clear,33,5,1,0.36361299990676293,1
8925,123,Larynx,Sham,Cons,Clear,34,2,0,0.536855999962427,1
8926,123,Larynx,Sham,Cons,Clear,35,4,1,0.3918847000459211,1
8927,123,Larynx,Sham,Cons,Clear,36,2,1,0.449209999991581,1
8928,123,Larynx,Sham,Cons,Clear,37,3,1,0.39595200004987396,1
8929,123,Larynx,Sham,Cons,Clear,38,3,1,0.34959380002692303,1
8930,123,Larynx,Sham,Cons,Clear,39,3,1,0.41465489997062804,1
8931,123,Larynx,Sham,Cons,Clear,40,2,1,0.6211153999902309,1
8932,123,Larynx,Sham,Cons,Clear,41,4,1,0.45984200004022596,1
8933,123,Larynx,Sham,Cons,Clear,42,4,1,0.5660029000137,1
8934,123,Larynx,Sham,Cons,Clear,43,2,1,0.5688358999323101,1
8935,123,Larynx,Sham,Cons,Clear,44,3,1,0.605189599911682,1
8936,123,Larynx,Sham,Cons,Clear,45,3,1,0.640283000073396,1
8937,123,Larynx,Sham,Cons,Clear,46,1,0,0.5601390999509019,1
8938,123,Larynx,Sham,Cons,Clear,47,4,1,0.684137200005353,1
8939,123,Larynx,Sham,Cons,Clear,48,3,1,0.377128800028004,1
8940,123,Larynx,Sham,Cons,Clear,49,2,1,0.38026890007313296,1
8941,123,Larynx,Sham,Cons,Clear,50,5,1,0.36041409999597795,1
8942,123,Larynx,Sham,Cons,Clear,51,1,0,0.608957699965686,1
8943,123,Larynx,Sham,Cons,Clear,52,5,1,0.37292550003621705,1
8944,123,Larynx,Sham,Cons,Clear,53,4,1,0.32657510007265994,1
8945,123,Larynx,Sham,Cons,Clear,54,3,1,0.260311299934983,1
8946,123,Larynx,Sham,Cons,Clear,55,1,1,0.276063999976031,1
8947,123,Larynx,Sham,Cons,Clear,56,5,1,0.43088080000598,1
8948,123,Larynx,Sham,Cons,Clear,57,3,1,0.37724199995864205,1
8949,123,Larynx,Sham,Cons,Clear,58,4,1,0.430339899961837,1
8950,123,Larynx,Sham,Cons,Clear,59,3,1,0.6187391000567,1
8951,123,Larynx,Sham,Cons,Clear,60,2,1,0.38113069999963,1
8952,123,Larynx,Sham,Cons,Clear,61,3,1,0.556596100097522,1
8953,123,Larynx,Sham,Cons,Clear,62,3,1,0.48240059998352103,1
8954,123,Larynx,Sham,Cons,Clear,63,2,1,0.43207430001348296,1
8955,123,Larynx,Sham,Cons,Clear,64,5,1,0.5819381000474101,1
8956,123,Larynx,Sham,Cons,Clear,65,5,1,0.36659360001795,1
8957,123,Larynx,Sham,Cons,Clear,66,1,0,0.6017624000087379,1
8958,123,Larynx,Sham,Cons,Clear,67,3,1,0.641593700041994,1
8959,123,Larynx,Sham,Cons,Clear,68,4,1,0.459608100005426,1
8960,123,Larynx,Sham,Cons,Clear,69,2,0,0.519737599999644,1
8961,123,Larynx,Sham,Cons,Clear,70,3,1,0.337890699971467,1
8962,123,Larynx,Sham,Cons,Clear,71,3,1,0.516521199955605,1
8963,123,Larynx,Sham,Cons,Clear,72,2,0,1.05420730006881,1
8964,123,Larynx,Sham,Cons,Clear,73,1,0,0.6681480000261221,1
8965,123,Larynx,Sham,Cons,Clear,74,4,1,0.5089319999096921,1
8966,123,Larynx,Sham,Cons,Clear,75,5,1,0.5657353999558841,1
8967,123,Larynx,Sham,Cons,Clear,76,1,0,0.569870700011961,1
8968,123,Larynx,Sham,Cons,Clear,77,2,0,0.7914224999258291,1
8969,123,Larynx,Sham,Cons,Clear,78,4,1,0.381552300066687,1
8970,123,Larynx,Sham,Cons,Clear,79,3,1,0.513077400042675,1
8971,123,Larynx,Sham,Cons,Clear,80,4,1,0.43070819997228704,1
8972,123,Larynx,Sham,Cons,Clear,81,2,1,0.706666799960658,1
8973,123,Larynx,Sham,Cons,Clear,82,1,0,0.630999300046824,1
8974,123,Larynx,Sham,Cons,Clear,83,1,0,0.990472700097598,1
8975,123,Larynx,Sham,Cons,Clear,84,3,1,0.713512199930847,1
8976,123,Larynx,Sham,Cons,Clear,85,3,1,0.434351500007324,1
8977,123,Larynx,Sham,Cons,Clear,86,5,1,0.45247210003435606,1
8978,123,Larynx,Sham,Cons,Clear,87,5,1,0.404435700038448,1
8979,123,Larynx,Sham,Cons,Clear,88,3,1,0.297924699960276,1
8980,123,Larynx,Sham,Cons,Clear,89,3,1,0.41651110001839703,1
8981,123,Larynx,Sham,Cons,Clear,90,3,1,0.48808020004071295,1
8982,123,Larynx,Sham,Cons,Clear,91,4,1,0.627907799906097,1
8983,123,Larynx,Sham,Cons,Clear,92,2,1,0.8904097999911759,1
8984,123,Larynx,Sham,Cons,Clear,93,3,1,0.5060490999603641,1
8985,123,Larynx,Sham,Cons,Clear,94,4,1,0.478531299973838,1
8986,123,Larynx,Sham,Cons,Clear,95,5,1,0.4843150000087921,1
8987,123,Larynx,Sham,Cons,Clear,96,4,1,0.503425500006415,1
8988,123,Larynx,Sham,Cons,Clear,97,5,1,0.5517540000146249,1
8989,123,Larynx,Sham,Cons,Clear,98,3,1,0.504464800003916,1
8990,123,Larynx,Sham,Cons,Clear,99,2,0,0.606345599982888,1
8991,123,Larynx,Sham,Cons,Clear,100,3,1,0.431687099975534,1
8992,123,Larynx,Sham,Cons,Clear,101,4,1,0.33889219991397096,1
8993,123,Larynx,Sham,Cons,Clear,102,1,0,0.565093000070192,1
8994,123,Larynx,Sham,Cons,Clear,103,1,0,0.576436599949375,1
8995,123,Larynx,Sham,Cons,Clear,104,2,1,0.5595745999598879,1
8996,123,Larynx,Sham,Cons,Clear,105,2,0,0.752073299954645,1
8997,123,Larynx,Sham,Cons,Clear,106,5,1,0.46695589995943004,1
8998,123,Larynx,Sham,Cons,Clear,107,4,1,0.38407859997823796,1
8999,123,Larynx,Sham,Cons,Clear,108,2,1,0.37800790008623203,1
9000,123,Larynx,Sham,Cons,Clear,109,4,1,0.39161549997516,1
9001,123,Larynx,Sham,Cons,Clear,110,2,1,0.471789199975319,1
9002,123,Larynx,Sham,Cons,Clear,111,3,1,0.643698600004427,1
9003,123,Larynx,Sham,Cons,Clear,112,1,0,0.58779689995572,1
9004,123,Larynx,Sham,Cons,Clear,113,1,1,0.40108599991071997,1
9005,123,Larynx,Sham,Cons,Clear,114,3,1,0.41328639991115795,1
9006,123,Larynx,Sham,Cons,Clear,115,4,1,0.45347910001874,1
9007,123,Larynx,Sham,Cons,Clear,116,2,0,0.748297899961472,1
9008,123,Larynx,Sham,Cons,Clear,117,5,1,0.4395337000023571,1
9009,123,Larynx,Sham,Cons,Clear,118,3,1,0.35312450001947604,1
9010,123,Larynx,Sham,Cons,Clear,119,3,1,0.37298999994527504,1
9011,123,Larynx,Sham,Cons,Clear,120,2,1,0.34043410001322605,1
9012,123,Larynx,Sham,Cons,Clear,121,1,1,0.449144699960016,1
9013,123,Larynx,Sham,Cons,Clear,122,3,1,0.622139299986884,1
9014,123,Larynx,Sham,Cons,Clear,123,3,1,0.476697799982503,1
9015,123,Larynx,Sham,Cons,Clear,124,2,1,0.448133099940605,1
9016,123,Larynx,Sham,Cons,Clear,125,1,0,0.6261199999134991,1
9017,123,Larynx,Sham,Cons,Clear,126,4,1,0.51335789996665,1
9018,123,Larynx,Sham,Cons,Clear,127,4,1,0.49332090001553297,1
9019,123,Larynx,Sham,Cons,Clear,128,5,1,0.355879899929278,1
9020,123,Larynx,Sham,Cons,Clear,129,5,1,0.44639309996273396,1
9021,123,Larynx,Sham,Cons,Clear,130,5,1,0.38051260006614,1
9022,123,Larynx,Sham,Cons,Clear,131,3,1,0.5398303999099879,1
9023,123,Larynx,Sham,Cons,Clear,132,1,0,0.575281600002199,1
9024,123,Larynx,Sham,Cons,Clear,133,1,0,0.6510298000648621,1
9025,123,Larynx,Sham,Cons,Clear,134,2,0,0.6793010999681429,1
9026,123,Larynx,Sham,Cons,Clear,135,2,1,0.425472900038585,1
9027,123,Larynx,Sham,Cons,Clear,136,2,1,0.349906599964015,1
9028,123,Larynx,Sham,Cons,Clear,137,5,1,0.4122769000241529,1
9029,123,Larynx,Sham,Cons,Clear,138,5,1,0.37706340011209205,1
9030,123,Larynx,Sham,Cons,Clear,139,4,1,0.443844499997795,1
9031,123,Larynx,Sham,Cons,Clear,140,4,1,0.515743599971756,1
9032,123,Larynx,Sham,Cons,Clear,141,2,0,0.703474100097083,1
9033,123,Larynx,Sham,Cons,Clear,142,2,1,0.38120659999549394,1
9034,123,Larynx,Sham,Cons,Clear,143,4,1,0.45808100001886504,1
9035,123,Larynx,Sham,Cons,Clear,144,5,1,0.36442840006202504,1
9036,123,Larynx,Sham,Cons,Clear,145,3,1,0.387875200016424,1
9037,123,Larynx,Sham,Cons,Clear,146,3,1,0.35562679998111,1
9038,123,Larynx,Sham,Cons,Clear,147,3,1,0.319056899985299,1
9039,123,Larynx,Sham,Cons,Clear,148,3,1,0.40138259995728703,1
9040,123,Larynx,Sham,Cons,Clear,149,3,1,0.342998999985866,1
9041,123,Larynx,Sham,Cons,Clear,150,4,1,0.348280899925157,1
9042,123,Larynx,Sham,Cons,Clear,151,4,1,0.34149350004736306,1
9043,123,Larynx,Sham,Cons,Clear,152,4,1,0.35459070000797493,1
9044,123,Larynx,Sham,Cons,Clear,153,1,0,0.549149800091982,1
9045,123,Larynx,Sham,Cons,Clear,154,3,1,0.657464199932292,1
9046,123,Larynx,Sham,Cons,Clear,155,1,1,0.358980800025165,1
9047,123,Larynx,Sham,Cons,Clear,156,2,0,0.6610094999196011,1
11388,139,Larynx,Right cTBS,Cons,Clear,1,3,0,0.766012499982025,1
11389,139,Larynx,Right cTBS,Cons,Clear,2,4,1,0.521880799962673,1
11390,139,Larynx,Right cTBS,Cons,Clear,3,4,1,0.631810699997004,1
11391,139,Larynx,Right cTBS,Cons,Clear,4,5,1,0.5480188000365159,1
11392,139,Larynx,Right cTBS,Cons,Clear,5,4,1,0.648489899991546,1
11393,139,Larynx,Right cTBS,Cons,Clear,6,4,1,0.622123099979945,1
11394,139,Larynx,Right cTBS,Cons,Clear,7,5,1,0.5535239999881011,1
11395,139,Larynx,Right cTBS,Cons,Clear,8,5,1,0.5994166000164111,1
11396,139,Larynx,Right cTBS,Cons,Clear,9,1,0,0.6327657999936489,1
11397,139,Larynx,Right cTBS,Cons,Clear,10,3,0,0.765261500026099,1
11398,139,Larynx,Right cTBS,Cons,Clear,11,5,1,0.521062699961476,1
11399,139,Larynx,Right cTBS,Cons,Clear,12,2,0,0.6040550000034269,1
11400,139,Larynx,Right cTBS,Cons,Clear,13,3,0,0.671243500022683,1
11401,139,Larynx,Right cTBS,Cons,Clear,14,1,0,0.590175100020133,1
11402,139,Larynx,Right cTBS,Cons,Clear,15,1,0,0.6572048999951221,1
11403,139,Larynx,Right cTBS,Cons,Clear,16,2,0,0.5710685000522061,1
11404,139,Larynx,Right cTBS,Cons,Clear,17,3,0,0.700492699979804,1
11405,139,Larynx,Right cTBS,Cons,Clear,18,1,0,0.6107563000405211,1
11406,139,Larynx,Right cTBS,Cons,Clear,19,3,1,0.624964300019201,1
11407,139,Larynx,Right cTBS,Cons,Clear,20,3,0,0.7799121999996709,1
11408,139,Larynx,Right cTBS,Cons,Clear,21,3,0,0.792492399981711,1
11409,139,Larynx,Right cTBS,Cons,Clear,22,4,1,0.606320099963341,1
11410,139,Larynx,Right cTBS,Cons,Clear,23,4,1,0.49857420002808794,1
11411,139,Larynx,Right cTBS,Cons,Clear,24,5,1,0.5976114000077359,1
11412,139,Larynx,Right cTBS,Cons,Clear,25,3,0,1.10482240002602,1
11413,139,Larynx,Right cTBS,Cons,Clear,26,3,0,0.670581899990793,1
11414,139,Larynx,Right cTBS,Cons,Clear,27,3,1,0.82185839995509,1
11415,139,Larynx,Right cTBS,Cons,Clear,28,1,0,0.576117700024042,1
11416,139,Larynx,Right cTBS,Cons,Clear,29,4,1,0.511686200043187,1
11417,139,Larynx,Right cTBS,Cons,Clear,30,2,0,0.622734100033995,1
11418,139,Larynx,Right cTBS,Cons,Clear,31,2,0,0.604977100039832,1
11419,139,Larynx,Right cTBS,Cons,Clear,32,3,0,0.7353634000173771,1
11420,139,Larynx,Right cTBS,Cons,Clear,33,4,1,0.61353329999838,1
11421,139,Larynx,Right cTBS,Cons,Clear,34,5,1,0.521006800001487,1
11422,139,Larynx,Right cTBS,Cons,Clear,35,2,0,0.581229300005361,1
11423,139,Larynx,Right cTBS,Cons,Clear,36,2,0,0.813742399972398,1
11424,139,Larynx,Right cTBS,Cons,Clear,37,2,0,0.58121089998167,1
11425,139,Larynx,Right cTBS,Cons,Clear,38,1,0,0.590035300003365,1
11426,139,Larynx,Right cTBS,Cons,Clear,39,2,0,0.589653700008057,1
11427,139,Larynx,Right cTBS,Cons,Clear,40,4,1,0.47089070000220096,1
11428,139,Larynx,Right cTBS,Cons,Clear,41,3,1,0.51919610000914,1
11429,139,Larynx,Right cTBS,Cons,Clear,42,4,1,0.5502090000081811,1
11430,139,Larynx,Right cTBS,Cons,Clear,43,1,0,0.581240099971183,1
11431,139,Larynx,Right cTBS,Cons,Clear,44,1,0,0.801803300040774,1
11432,139,Larynx,Right cTBS,Cons,Clear,45,2,0,0.656325400050264,1
11433,139,Larynx,Right cTBS,Cons,Clear,46,4,1,0.44921210000757106,1
11434,139,Larynx,Right cTBS,Cons,Clear,47,4,1,0.51062479999382,1
11435,139,Larynx,Right cTBS,Cons,Clear,48,5,1,0.8518583999830299,1
11436,139,Larynx,Right cTBS,Cons,Clear,49,4,1,0.614399100013543,1
11437,139,Larynx,Right cTBS,Cons,Clear,50,2,0,0.526173499994911,1
11438,139,Larynx,Right cTBS,Cons,Clear,51,1,0,0.571289699990302,1
11439,139,Larynx,Right cTBS,Cons,Clear,52,3,1,0.440182899998035,1
11440,139,Larynx,Right cTBS,Cons,Clear,53,5,1,0.527836099965498,1
11441,139,Larynx,Right cTBS,Cons,Clear,54,2,0,0.596266800013836,1
11442,139,Larynx,Right cTBS,Cons,Clear,55,2,0,0.687154099985491,1
11443,139,Larynx,Right cTBS,Cons,Clear,56,3,0,0.9855068000033499,1
11444,139,Larynx,Right cTBS,Cons,Clear,57,5,1,0.657466100004967,1
11445,139,Larynx,Right cTBS,Cons,Clear,58,3,0,0.7968583999900151,1
11446,139,Larynx,Right cTBS,Cons,Clear,59,3,0,0.694423000037204,1
11447,139,Larynx,Right cTBS,Cons,Clear,60,2,0,0.9715769999893381,1
11448,139,Larynx,Right cTBS,Cons,Clear,61,3,0,0.7746503999806009,1
11449,139,Larynx,Right cTBS,Cons,Clear,62,4,1,0.49148520000744605,1
11450,139,Larynx,Right cTBS,Cons,Clear,63,3,1,0.9071339999791229,1
11451,139,Larynx,Right cTBS,Cons,Clear,64,5,1,0.7318258999730459,1
11452,139,Larynx,Right cTBS,Cons,Clear,65,3,0,0.703780300042126,1
11453,139,Larynx,Right cTBS,Cons,Clear,66,3,1,1.11534429999301,1
11454,139,Larynx,Right cTBS,Cons,Clear,67,4,1,0.655227400013246,1
11455,139,Larynx,Right cTBS,Cons,Clear,68,1,0,0.5581085999729111,1
11456,139,Larynx,Right cTBS,Cons,Clear,69,3,1,0.8017695000162349,1
11457,139,Larynx,Right cTBS,Cons,Clear,70,5,1,0.6076108000124799,1
11458,139,Larynx,Right cTBS,Cons,Clear,71,3,0,0.70691030001035,1
11459,139,Larynx,Right cTBS,Cons,Clear,72,4,1,0.549748999997973,1
11460,139,Larynx,Right cTBS,Cons,Clear,73,5,1,0.6447218999965121,1
11461,139,Larynx,Right cTBS,Cons,Clear,74,2,0,0.461045900010504,1
11462,139,Larynx,Right cTBS,Cons,Clear,75,1,0,0.741339600004721,1
11463,139,Larynx,Right cTBS,Cons,Clear,76,2,0,0.659872199990787,1
11464,139,Larynx,Right cTBS,Cons,Clear,77,1,0,0.6578640000079761,1
11465,139,Larynx,Right cTBS,Cons,Clear,78,2,0,0.577319799980614,1
11466,139,Larynx,Right cTBS,Cons,Clear,79,5,1,0.46776470000622794,1
11467,139,Larynx,Right cTBS,Cons,Clear,80,2,0,0.588524100021459,1
11468,139,Larynx,Right cTBS,Cons,Clear,81,2,0,0.71047540003201,1
11469,139,Larynx,Right cTBS,Cons,Clear,82,2,0,0.721234299999196,1
11470,139,Larynx,Right cTBS,Cons,Clear,83,4,1,0.44724660000065297,1
11471,139,Larynx,Right cTBS,Cons,Clear,84,2,0,0.6621467000222759,1
11472,139,Larynx,Right cTBS,Cons,Clear,85,2,0,0.6055279999854971,1
11473,139,Larynx,Right cTBS,Cons,Clear,86,1,0,0.667516599991359,1
11474,139,Larynx,Right cTBS,Cons,Clear,87,5,1,0.54702629998792,1
11475,139,Larynx,Right cTBS,Cons,Clear,88,5,1,0.618798299983609,1
11476,139,Larynx,Right cTBS,Cons,Clear,89,3,0,0.556993399979547,1
11477,139,Larynx,Right cTBS,Cons,Clear,90,3,0,0.7320869999821299,1
11478,139,Larynx,Right cTBS,Cons,Clear,91,3,0,0.7460275000194091,1
11479,139,Larynx,Right cTBS,Cons,Clear,92,4,1,0.47442230000160607,1
11480,139,Larynx,Right cTBS,Cons,Clear,93,4,1,0.424680900003295,1
11481,139,Larynx,Right cTBS,Cons,Clear,94,5,1,0.544264999974985,1
11482,139,Larynx,Right cTBS,Cons,Clear,95,4,1,0.819694900012109,1
11483,139,Larynx,Right cTBS,Cons,Clear,96,5,1,0.614053700002842,1
11484,139,Larynx,Right cTBS,Cons,Clear,97,1,0,0.523153899994213,1
11485,139,Larynx,Right cTBS,Cons,Clear,98,3,0,0.66569370002253,1
11486,139,Larynx,Right cTBS,Cons,Clear,99,1,0,0.685577900032513,1
11487,139,Larynx,Right cTBS,Cons,Clear,100,3,0,1.00510990002658,1
11488,139,Larynx,Right cTBS,Cons,Clear,101,1,0,0.766542400000617,1
11489,139,Larynx,Right cTBS,Cons,Clear,102,4,1,0.672854000004008,1
11490,139,Larynx,Right cTBS,Cons,Clear,103,3,1,0.8051986999926161,1
11491,139,Larynx,Right cTBS,Cons,Clear,104,4,1,0.597372900054324,1
11492,139,Larynx,Right cTBS,Cons,Clear,105,2,0,0.637331000005361,1
11493,139,Larynx,Right cTBS,Cons,Clear,106,3,0,1.0795689999940798,1
11494,139,Larynx,Right cTBS,Cons,Clear,107,3,0,0.725805199996103,1
11495,139,Larynx,Right cTBS,Cons,Clear,108,5,1,0.514399499981664,1
11496,139,Larynx,Right cTBS,Cons,Clear,109,3,0,0.700892599998042,1
11497,139,Larynx,Right cTBS,Cons,Clear,110,2,0,0.967376200016588,1
11498,139,Larynx,Right cTBS,Cons,Clear,111,1,0,1.01181990001351,1
11499,139,Larynx,Right cTBS,Cons,Clear,112,4,1,1.00481390004279,1
11500,139,Larynx,Right cTBS,Cons,Clear,113,3,0,0.736739500018302,1
11501,139,Larynx,Right cTBS,Cons,Clear,114,4,1,0.57119489996694,1
11502,139,Larynx,Right cTBS,Cons,Clear,115,1,0,0.658522799960338,1
11503,139,Larynx,Right cTBS,Cons,Clear,116,2,0,0.772809999994934,1
11504,139,Larynx,Right cTBS,Cons,Clear,117,3,0,0.721638199989684,1
11505,139,Larynx,Right cTBS,Cons,Clear,118,1,0,0.7412296999827959,1
11506,139,Larynx,Right cTBS,Cons,Clear,119,3,1,0.7319425999885429,1
11507,139,Larynx,Right cTBS,Cons,Clear,120,1,0,0.6883929999894461,1
11508,139,Larynx,Right cTBS,Cons,Clear,121,3,0,1.0166560999932701,1
11509,139,Larynx,Right cTBS,Cons,Clear,122,2,0,0.729013599979226,1
11510,139,Larynx,Right cTBS,Cons,Clear,123,4,1,0.48752180003793893,1
11511,139,Larynx,Right cTBS,Cons,Clear,124,4,1,0.5086213999893521,1
11512,139,Larynx,Right cTBS,Cons,Clear,125,3,1,0.7744734000298191,1
11513,139,Larynx,Right cTBS,Cons,Clear,126,3,0,0.648522100003902,1
11514,139,Larynx,Right cTBS,Cons,Clear,127,2,0,0.741083799977787,1
11515,139,Larynx,Right cTBS,Cons,Clear,128,4,1,0.521836299973074,1
11516,139,Larynx,Right cTBS,Cons,Clear,129,5,1,0.774587000021711,1
11517,139,Larynx,Right cTBS,Cons,Clear,130,2,0,0.626741899992339,1
11518,139,Larynx,Right cTBS,Cons,Clear,131,1,0,0.7110639999737031,1
11519,139,Larynx,Right cTBS,Cons,Clear,132,2,0,0.7811598000116651,1
11520,139,Larynx,Right cTBS,Cons,Clear,133,5,1,0.671321199974045,1
11521,139,Larynx,Right cTBS,Cons,Clear,134,3,0,0.735853699967265,1
11522,139,Larynx,Right cTBS,Cons,Clear,135,3,0,0.780481700028759,1
11523,139,Larynx,Right cTBS,Cons,Clear,136,3,1,0.5877314999816011,1
11524,139,Larynx,Right cTBS,Cons,Clear,137,2,0,0.784179800015409,1
11525,139,Larynx,Right cTBS,Cons,Clear,138,3,1,0.48565570003120206,1
11526,139,Larynx,Right cTBS,Cons,Clear,139,4,1,0.519136600021739,1
11527,139,Larynx,Right cTBS,Cons,Clear,140,3,1,0.5915348999551501,1
11528,139,Larynx,Right cTBS,Cons,Clear,141,4,1,0.784007599984761,1
11529,139,Larynx,Right cTBS,Cons,Clear,142,1,0,0.5994684000033891,1
11530,139,Larynx,Right cTBS,Cons,Clear,143,5,1,0.922879199963063,1
11531,139,Larynx,Right cTBS,Cons,Clear,144,2,0,0.646080000034999,1
11532,139,Larynx,Right cTBS,Cons,Clear,145,3,1,0.6432542999973521,1
11533,139,Larynx,Right cTBS,Cons,Clear,146,4,1,0.5285931000253189,1
11534,139,Larynx,Right cTBS,Cons,Clear,147,1,0,0.42979620001278795,1
11535,139,Larynx,Right cTBS,Cons,Clear,148,1,0,0.806702699977905,1
11536,139,Larynx,Right cTBS,Cons,Clear,149,2,0,0.9489214000059291,1
11537,139,Larynx,Right cTBS,Cons,Clear,150,5,1,0.499812299967743,1
11538,139,Larynx,Right cTBS,Cons,Clear,151,5,1,0.42428129998734204,1
11539,139,Larynx,Right cTBS,Cons,Clear,152,5,1,0.5362250999896789,1
11540,139,Larynx,Right cTBS,Cons,Clear,153,4,1,0.562317800009623,1
11541,139,Larynx,Right cTBS,Cons,Clear,154,3,1,0.750663899991196,1
11542,139,Larynx,Right cTBS,Cons,Clear,155,2,0,0.6534745999961159,1
11543,139,Larynx,Right cTBS,Cons,Clear,156,4,1,0.5717775999801229,1
12012,139,Larynx,Sham,Cons,Clear,1,3,1,0.968329900002573,1
12013,139,Larynx,Sham,Cons,Clear,2,4,1,0.601398500002688,1
12014,139,Larynx,Sham,Cons,Clear,3,2,0,0.7246889000016379,1
12015,139,Larynx,Sham,Cons,Clear,4,5,1,0.528023799997754,1
12016,139,Larynx,Sham,Cons,Clear,5,2,0,0.524122599999828,1
12017,139,Larynx,Sham,Cons,Clear,6,3,1,0.53264240000135,1
12018,139,Larynx,Sham,Cons,Clear,7,2,0,0.805061099999875,1
12019,139,Larynx,Sham,Cons,Clear,8,5,1,0.552242999998271,1
12020,139,Larynx,Sham,Cons,Clear,9,1,0,0.654955399993923,1
12021,139,Larynx,Sham,Cons,Clear,10,3,1,0.602785699993547,1
12022,139,Larynx,Sham,Cons,Clear,11,4,1,0.545939299998281,1
12023,139,Larynx,Sham,Cons,Clear,12,3,1,0.60819420000189,1
12024,139,Larynx,Sham,Cons,Clear,13,5,1,0.8143467999980201,1
12025,139,Larynx,Sham,Cons,Clear,14,4,1,0.5928856000027739,1
12026,139,Larynx,Sham,Cons,Clear,15,4,1,0.5571465000029999,1
12027,139,Larynx,Sham,Cons,Clear,16,2,0,0.556982399997651,1
12028,139,Larynx,Sham,Cons,Clear,17,4,1,0.559736800001701,1
12029,139,Larynx,Sham,Cons,Clear,18,3,1,0.62266030000319,1
12030,139,Larynx,Sham,Cons,Clear,19,1,0,0.6694419999985259,1
12031,139,Larynx,Sham,Cons,Clear,20,2,0,0.584172700000636,1
12032,139,Larynx,Sham,Cons,Clear,21,3,0,0.88652309999452,1
12033,139,Larynx,Sham,Cons,Clear,22,5,1,0.48325900000054406,1
12034,139,Larynx,Sham,Cons,Clear,23,4,1,0.4426711000051,1
12035,139,Larynx,Sham,Cons,Clear,24,1,0,0.560408199999074,1
12036,139,Larynx,Sham,Cons,Clear,25,5,1,0.609654899999441,1
12037,139,Larynx,Sham,Cons,Clear,26,2,0,0.550778199998604,1
12038,139,Larynx,Sham,Cons,Clear,27,3,1,0.506458200005,1
12039,139,Larynx,Sham,Cons,Clear,28,1,0,0.510163399994781,1
12040,139,Larynx,Sham,Cons,Clear,29,4,1,0.4519620999999461,1
12041,139,Larynx,Sham,Cons,Clear,30,1,0,0.584859400005371,1
12042,139,Larynx,Sham,Cons,Clear,31,1,0,0.6216775000066259,1
12043,139,Larynx,Sham,Cons,Clear,32,3,1,0.68018039999879,1
12044,139,Larynx,Sham,Cons,Clear,33,5,1,0.495297699999355,1
12045,139,Larynx,Sham,Cons,Clear,34,2,0,0.689144500000111,1
12046,139,Larynx,Sham,Cons,Clear,35,4,1,0.6693487000011371,1
12047,139,Larynx,Sham,Cons,Clear,36,2,0,0.6526125000018511,1
12048,139,Larynx,Sham,Cons,Clear,37,3,1,1.09362240000337,1
12049,139,Larynx,Sham,Cons,Clear,38,3,1,0.7711742999963459,1
12050,139,Larynx,Sham,Cons,Clear,39,3,0,0.5946065999960409,1
12051,139,Larynx,Sham,Cons,Clear,40,2,0,0.921949700001278,1
12052,139,Larynx,Sham,Cons,Clear,41,4,1,0.76539660000708,1
12053,139,Larynx,Sham,Cons,Clear,42,4,1,0.645663800001785,1
12054,139,Larynx,Sham,Cons,Clear,43,2,0,0.64778970000043,1
12055,139,Larynx,Sham,Cons,Clear,44,3,1,0.7205979999998822,1
12056,139,Larynx,Sham,Cons,Clear,45,3,1,0.874158899998292,1
12057,139,Larynx,Sham,Cons,Clear,46,1,0,0.659968100000697,1
12058,139,Larynx,Sham,Cons,Clear,47,4,0,0.7264058000000658,1
12059,139,Larynx,Sham,Cons,Clear,48,3,1,0.641113000005134,1
12060,139,Larynx,Sham,Cons,Clear,49,2,0,0.7122259000025221,1
12061,139,Larynx,Sham,Cons,Clear,50,5,1,0.7409410000036591,1
12062,139,Larynx,Sham,Cons,Clear,51,1,0,0.8751555999988342,1
12063,139,Larynx,Sham,Cons,Clear,52,5,1,1.0468858000022,1
12064,139,Larynx,Sham,Cons,Clear,53,4,1,0.8014314999963968,1
12065,139,Larynx,Sham,Cons,Clear,54,3,0,0.8727330999972759,1
12066,139,Larynx,Sham,Cons,Clear,55,1,0,0.8395368999990749,1
12067,139,Larynx,Sham,Cons,Clear,56,5,1,0.8527585999981969,1
12068,139,Larynx,Sham,Cons,Clear,57,3,1,0.835296999997809,1
12069,139,Larynx,Sham,Cons,Clear,58,4,1,0.6848069000043321,1
12070,139,Larynx,Sham,Cons,Clear,59,3,0,1.16964519999601,1
12071,139,Larynx,Sham,Cons,Clear,60,2,0,0.783213599999726,1
12072,139,Larynx,Sham,Cons,Clear,61,3,1,0.7047439000016309,1
12073,139,Larynx,Sham,Cons,Clear,62,3,1,0.877045199995337,1
12074,139,Larynx,Sham,Cons,Clear,63,2,0,0.943305599997984,1
12075,139,Larynx,Sham,Cons,Clear,64,5,1,1.03234519999387,1
12076,139,Larynx,Sham,Cons,Clear,65,5,1,0.9185557999953741,1
12077,139,Larynx,Sham,Cons,Clear,66,1,0,0.681786300003296,1
12078,139,Larynx,Sham,Cons,Clear,67,3,1,0.714188399993873,1
12079,139,Larynx,Sham,Cons,Clear,68,4,1,0.9618466999963861,1
12080,139,Larynx,Sham,Cons,Clear,69,2,0,0.546753899994656,1
12081,139,Larynx,Sham,Cons,Clear,70,3,0,0.900881900000968,1
12082,139,Larynx,Sham,Cons,Clear,71,3,1,0.909773599996697,1
12083,139,Larynx,Sham,Cons,Clear,72,2,0,0.529590099999041,1
12084,139,Larynx,Sham,Cons,Clear,73,1,0,0.596386299999722,1
12085,139,Larynx,Sham,Cons,Clear,74,4,1,0.762997999998333,1
12086,139,Larynx,Sham,Cons,Clear,75,5,1,0.63247820000106,1
12087,139,Larynx,Sham,Cons,Clear,76,1,0,0.867000899997947,1
12088,139,Larynx,Sham,Cons,Clear,77,2,0,0.632863600003475,1
12089,139,Larynx,Sham,Cons,Clear,78,4,1,0.623124799996731,1
12090,139,Larynx,Sham,Cons,Clear,79,3,1,0.632447899995896,1
12091,139,Larynx,Sham,Cons,Clear,80,4,1,0.557502900002874,1
12092,139,Larynx,Sham,Cons,Clear,81,2,0,0.802079699999013,1
12093,139,Larynx,Sham,Cons,Clear,82,1,0,0.624314900000172,1
12094,139,Larynx,Sham,Cons,Clear,83,1,0,0.555988600004639,1
12095,139,Larynx,Sham,Cons,Clear,84,3,1,0.628177600003255,1
12096,139,Larynx,Sham,Cons,Clear,85,3,1,0.824448700004723,1
12097,139,Larynx,Sham,Cons,Clear,86,5,1,0.566197799998918,1
12098,139,Larynx,Sham,Cons,Clear,87,5,0,0.6159310999937591,1
12099,139,Larynx,Sham,Cons,Clear,88,3,1,0.7643179000006061,1
12100,139,Larynx,Sham,Cons,Clear,89,3,0,0.993449099994905,1
12101,139,Larynx,Sham,Cons,Clear,90,3,1,0.51397839999845,1
12102,139,Larynx,Sham,Cons,Clear,91,4,1,0.731450599996606,1
12103,139,Larynx,Sham,Cons,Clear,92,2,0,0.609009799998603,1
12104,139,Larynx,Sham,Cons,Clear,93,3,1,0.9765750000005942,1
12105,139,Larynx,Sham,Cons,Clear,94,4,1,0.512596200002008,1
12106,139,Larynx,Sham,Cons,Clear,95,5,1,0.5617171999983841,1
12107,139,Larynx,Sham,Cons,Clear,96,4,0,0.8747965000002299,1
12108,139,Larynx,Sham,Cons,Clear,97,5,1,0.671839799993904,1
12109,139,Larynx,Sham,Cons,Clear,98,3,0,0.647811000002548,1
12110,139,Larynx,Sham,Cons,Clear,99,2,0,0.7102510999975491,1
12111,139,Larynx,Sham,Cons,Clear,100,3,1,0.62232010000298,1
12112,139,Larynx,Sham,Cons,Clear,101,4,1,0.7644982000056191,1
12113,139,Larynx,Sham,Cons,Clear,102,1,0,0.5711384000023829,1
12114,139,Larynx,Sham,Cons,Clear,103,1,0,0.618037100000947,1
12115,139,Larynx,Sham,Cons,Clear,104,2,0,0.8629686999993279,1
12116,139,Larynx,Sham,Cons,Clear,105,2,0,0.792755199996463,1
12117,139,Larynx,Sham,Cons,Clear,106,5,1,0.7874248999942208,1
12118,139,Larynx,Sham,Cons,Clear,107,4,1,0.552532299996528,1
12119,139,Larynx,Sham,Cons,Clear,108,2,0,0.631667300003755,1
12120,139,Larynx,Sham,Cons,Clear,109,4,1,0.922702200005006,1
12121,139,Larynx,Sham,Cons,Clear,110,2,0,0.7087833999976278,1
12122,139,Larynx,Sham,Cons,Clear,111,3,0,1.16422010000679,1
12123,139,Larynx,Sham,Cons,Clear,112,1,0,0.704203200002667,1
12124,139,Larynx,Sham,Cons,Clear,113,1,1,0.670949499995913,1
12125,139,Larynx,Sham,Cons,Clear,114,3,1,0.7588137999991891,1
12126,139,Larynx,Sham,Cons,Clear,115,4,1,0.832047700001567,1
12127,139,Larynx,Sham,Cons,Clear,116,2,0,0.546194200003811,1
12128,139,Larynx,Sham,Cons,Clear,117,5,1,0.5957711999944879,1
12129,139,Larynx,Sham,Cons,Clear,118,3,1,0.9443911999987901,1
12130,139,Larynx,Sham,Cons,Clear,119,3,1,0.847301300003892,1
12131,139,Larynx,Sham,Cons,Clear,120,2,0,0.8339955999981609,1
12132,139,Larynx,Sham,Cons,Clear,121,1,0,0.598437900000135,1
12133,139,Larynx,Sham,Cons,Clear,122,3,1,1.30916240000079,1
12134,139,Larynx,Sham,Cons,Clear,123,3,1,0.68555500000366,1
12135,139,Larynx,Sham,Cons,Clear,124,2,0,0.5996263000051839,1
12136,139,Larynx,Sham,Cons,Clear,125,1,0,0.5475564999942439,1
12137,139,Larynx,Sham,Cons,Clear,126,4,1,0.726198800002749,1
12138,139,Larynx,Sham,Cons,Clear,127,4,1,0.641467000001285,1
12139,139,Larynx,Sham,Cons,Clear,128,5,1,0.6606967000043371,1
12140,139,Larynx,Sham,Cons,Clear,129,5,1,0.6741419000027239,1
12141,139,Larynx,Sham,Cons,Clear,130,5,1,0.6691958000010351,1
12142,139,Larynx,Sham,Cons,Clear,131,3,1,1.08543189999909,1
12143,139,Larynx,Sham,Cons,Clear,132,1,0,0.600802499997371,1
12144,139,Larynx,Sham,Cons,Clear,133,1,0,0.526652100001229,1
12145,139,Larynx,Sham,Cons,Clear,134,2,0,0.760280599999533,1
12146,139,Larynx,Sham,Cons,Clear,135,2,0,0.6936103999978511,1
12147,139,Larynx,Sham,Cons,Clear,136,2,0,0.8233363999970609,1
12148,139,Larynx,Sham,Cons,Clear,137,5,1,0.553122699995583,1
12149,139,Larynx,Sham,Cons,Clear,138,5,1,0.46524990000034494,1
12150,139,Larynx,Sham,Cons,Clear,139,4,1,0.655148500001815,1
12151,139,Larynx,Sham,Cons,Clear,140,4,1,0.7699772999985731,1
12152,139,Larynx,Sham,Cons,Clear,141,2,0,0.6410217000011469,1
12153,139,Larynx,Sham,Cons,Clear,142,2,0,0.6459092000004599,1
12154,139,Larynx,Sham,Cons,Clear,143,4,1,0.6066567000016221,1
12155,139,Larynx,Sham,Cons,Clear,144,5,1,0.632545000000391,1
12156,139,Larynx,Sham,Cons,Clear,145,3,0,1.10120779999852,1
12157,139,Larynx,Sham,Cons,Clear,146,3,1,0.695023399995989,1
12158,139,Larynx,Sham,Cons,Clear,147,3,1,0.5998284000015699,1
12159,139,Larynx,Sham,Cons,Clear,148,3,1,0.711556299997028,1
12160,139,Larynx,Sham,Cons,Clear,149,3,1,0.7485393000024492,1
12161,139,Larynx,Sham,Cons,Clear,150,4,1,0.630388899997342,1
12162,139,Larynx,Sham,Cons,Clear,151,4,1,0.6055560999957379,1
12163,139,Larynx,Sham,Cons,Clear,152,4,1,0.6574451999986201,1
12164,139,Larynx,Sham,Cons,Clear,153,1,0,0.5648460000011261,1
12165,139,Larynx,Sham,Cons,Clear,154,3,1,0.45106620000296993,1
12166,139,Larynx,Sham,Cons,Clear,155,1,0,0.7268679999979208,1
12167,139,Larynx,Sham,Cons,Clear,156,2,1,0.7348360999967549,1
14508,142,Larynx,Right cTBS,Cons,Clear,1,3,1,0.68749519996345,1
14509,142,Larynx,Right cTBS,Cons,Clear,2,2,0,0.8169837000314151,1
14510,142,Larynx,Right cTBS,Cons,Clear,3,3,1,0.5003165999660271,1
14511,142,Larynx,Right cTBS,Cons,Clear,4,5,1,0.518001699994784,1
14512,142,Larynx,Right cTBS,Cons,Clear,5,5,1,0.4822407000465321,1
14513,142,Larynx,Right cTBS,Cons,Clear,6,3,1,0.452061299991328,1
14514,142,Larynx,Right cTBS,Cons,Clear,7,1,0,0.435330300009809,1
14515,142,Larynx,Right cTBS,Cons,Clear,8,3,1,0.512837700021919,1
14516,142,Larynx,Right cTBS,Cons,Clear,9,3,1,0.570782999973744,1
14517,142,Larynx,Right cTBS,Cons,Clear,10,4,1,0.50372989999596,1
14518,142,Larynx,Right cTBS,Cons,Clear,11,3,1,0.5163918000180271,1
14519,142,Larynx,Right cTBS,Cons,Clear,12,1,0,0.481424500001594,1
14520,142,Larynx,Right cTBS,Cons,Clear,13,5,1,0.552342700015288,1
14521,142,Larynx,Right cTBS,Cons,Clear,14,4,1,0.495812299952377,1
14522,142,Larynx,Right cTBS,Cons,Clear,15,1,0,0.41883320000488294,1
14523,142,Larynx,Right cTBS,Cons,Clear,16,5,1,0.593758700008038,1
14524,142,Larynx,Right cTBS,Cons,Clear,17,2,1,0.536444699973799,1
14525,142,Larynx,Right cTBS,Cons,Clear,18,4,1,0.6510528000071639,1
14526,142,Larynx,Right cTBS,Cons,Clear,19,2,0,0.862949100031983,1
14527,142,Larynx,Right cTBS,Cons,Clear,20,2,0,0.65328640001826,1
14528,142,Larynx,Right cTBS,Cons,Clear,21,1,1,0.648839699977543,1
14529,142,Larynx,Right cTBS,Cons,Clear,22,2,0,0.7809690000140109,1
14530,142,Larynx,Right cTBS,Cons,Clear,23,3,1,0.535041199997067,1
14531,142,Larynx,Right cTBS,Cons,Clear,24,2,1,0.561686200031545,1
14532,142,Larynx,Right cTBS,Cons,Clear,25,4,1,0.5559692999813709,1
14533,142,Larynx,Right cTBS,Cons,Clear,26,2,0,0.7775967000052328,1
14534,142,Larynx,Right cTBS,Cons,Clear,27,4,1,0.695462200033944,1
14535,142,Larynx,Right cTBS,Cons,Clear,28,3,1,0.546769399952609,1
14536,142,Larynx,Right cTBS,Cons,Clear,29,5,1,0.63151310000103,1
14537,142,Larynx,Right cTBS,Cons,Clear,30,3,1,0.5699327000183979,1
14538,142,Larynx,Right cTBS,Cons,Clear,31,4,1,0.585108499974012,1
14539,142,Larynx,Right cTBS,Cons,Clear,32,2,1,0.4942848000209779,1
14540,142,Larynx,Right cTBS,Cons,Clear,33,3,1,0.697774300002493,1
14541,142,Larynx,Right cTBS,Cons,Clear,34,4,1,0.507046499988064,1
14542,142,Larynx,Right cTBS,Cons,Clear,35,1,0,0.45369200001005106,1
14543,142,Larynx,Right cTBS,Cons,Clear,36,4,1,0.679542500001844,1
14544,142,Larynx,Right cTBS,Cons,Clear,37,3,1,0.598929399973713,1
14545,142,Larynx,Right cTBS,Cons,Clear,38,5,1,0.5311300000175829,1
14546,142,Larynx,Right cTBS,Cons,Clear,39,1,1,0.44909629999892803,1
14547,142,Larynx,Right cTBS,Cons,Clear,40,4,1,0.500912400020752,1
14548,142,Larynx,Right cTBS,Cons,Clear,41,3,1,0.681621700001415,1
14549,142,Larynx,Right cTBS,Cons,Clear,42,1,0,0.452413899998646,1
14550,142,Larynx,Right cTBS,Cons,Clear,43,1,0,0.625278000021353,1
14551,142,Larynx,Right cTBS,Cons,Clear,44,3,1,0.720376599987503,1
14552,142,Larynx,Right cTBS,Cons,Clear,45,1,0,0.6053106000181291,1
14553,142,Larynx,Right cTBS,Cons,Clear,46,5,1,0.47743939998326795,1
14554,142,Larynx,Right cTBS,Cons,Clear,47,4,1,0.881461099954322,1
14555,142,Larynx,Right cTBS,Cons,Clear,48,4,1,0.6917639999883249,1
14556,142,Larynx,Right cTBS,Cons,Clear,49,2,0,0.7702126000076529,1
14557,142,Larynx,Right cTBS,Cons,Clear,50,2,0,0.6989866000367329,1
14558,142,Larynx,Right cTBS,Cons,Clear,51,2,0,0.753610500018112,1
14559,142,Larynx,Right cTBS,Cons,Clear,52,3,1,0.486512300034519,1
14560,142,Larynx,Right cTBS,Cons,Clear,53,3,1,0.574071299983189,1
14561,142,Larynx,Right cTBS,Cons,Clear,54,4,1,0.475309000001289,1
14562,142,Larynx,Right cTBS,Cons,Clear,55,3,1,0.46336629998404494,1
14563,142,Larynx,Right cTBS,Cons,Clear,56,4,1,0.526859299978241,1
14564,142,Larynx,Right cTBS,Cons,Clear,57,5,1,0.45009730005404,1
14565,142,Larynx,Right cTBS,Cons,Clear,58,2,1,0.391103499976452,1
14566,142,Larynx,Right cTBS,Cons,Clear,59,5,1,0.506886599992868,1
14567,142,Larynx,Right cTBS,Cons,Clear,60,3,1,0.4802645999589,1
14568,142,Larynx,Right cTBS,Cons,Clear,61,5,1,0.450466500013135,1
14569,142,Larynx,Right cTBS,Cons,Clear,62,3,1,0.44718710001325207,1
14570,142,Larynx,Right cTBS,Cons,Clear,63,2,0,0.5182543999981141,1
14571,142,Larynx,Right cTBS,Cons,Clear,64,3,1,0.677759999991395,1
14572,142,Larynx,Right cTBS,Cons,Clear,65,1,0,0.543819000013173,1
14573,142,Larynx,Right cTBS,Cons,Clear,66,4,1,0.603445300017484,1
14574,142,Larynx,Right cTBS,Cons,Clear,67,2,0,0.6692167000146579,1
14575,142,Larynx,Right cTBS,Cons,Clear,68,4,1,0.5221527999965471,1
14576,142,Larynx,Right cTBS,Cons,Clear,69,2,1,0.819428700022399,1
14577,142,Larynx,Right cTBS,Cons,Clear,70,1,0,0.59432710002875,1
14578,142,Larynx,Right cTBS,Cons,Clear,71,3,1,0.6053288999828511,1
14579,142,Larynx,Right cTBS,Cons,Clear,72,4,1,0.68979400000535,1
14580,142,Larynx,Right cTBS,Cons,Clear,73,3,1,0.517438900016714,1
14581,142,Larynx,Right cTBS,Cons,Clear,74,2,0,0.5118191000074149,1
14582,142,Larynx,Right cTBS,Cons,Clear,75,3,1,0.565364999987651,1
14583,142,Larynx,Right cTBS,Cons,Clear,76,5,1,0.5700217999983579,1
14584,142,Larynx,Right cTBS,Cons,Clear,77,1,0,0.461130500014406,1
14585,142,Larynx,Right cTBS,Cons,Clear,78,5,1,0.5794299999834039,1
14586,142,Larynx,Right cTBS,Cons,Clear,79,5,1,0.516132900025696,1
14587,142,Larynx,Right cTBS,Cons,Clear,80,2,0,0.563714799995068,1
14588,142,Larynx,Right cTBS,Cons,Clear,81,4,1,0.6623661000048741,1
14589,142,Larynx,Right cTBS,Cons,Clear,82,2,0,0.699909000017215,1
14590,142,Larynx,Right cTBS,Cons,Clear,83,1,0,0.614387899986468,1
14591,142,Larynx,Right cTBS,Cons,Clear,84,3,1,0.486493300006259,1
14592,142,Larynx,Right cTBS,Cons,Clear,85,3,1,0.500417199975345,1
14593,142,Larynx,Right cTBS,Cons,Clear,86,2,0,0.533555299974978,1
14594,142,Larynx,Right cTBS,Cons,Clear,87,2,0,0.684431100031361,1
14595,142,Larynx,Right cTBS,Cons,Clear,88,1,0,0.536138499970548,1
14596,142,Larynx,Right cTBS,Cons,Clear,89,3,1,0.51180320000276,1
14597,142,Larynx,Right cTBS,Cons,Clear,90,4,1,0.620317799970508,1
14598,142,Larynx,Right cTBS,Cons,Clear,91,3,1,0.541316699993331,1
14599,142,Larynx,Right cTBS,Cons,Clear,92,5,1,0.521687999949791,1
14600,142,Larynx,Right cTBS,Cons,Clear,93,1,0,0.534819900000002,1
14601,142,Larynx,Right cTBS,Cons,Clear,94,4,1,0.523527699988335,1
14602,142,Larynx,Right cTBS,Cons,Clear,95,5,1,0.674279000028037,1
14603,142,Larynx,Right cTBS,Cons,Clear,96,3,1,0.531894899962936,1
14604,142,Larynx,Right cTBS,Cons,Clear,97,2,0,0.690080399974249,1
14605,142,Larynx,Right cTBS,Cons,Clear,98,1,1,0.536636899982113,1
14606,142,Larynx,Right cTBS,Cons,Clear,99,2,1,0.690659300016705,1
14607,142,Larynx,Right cTBS,Cons,Clear,100,3,1,0.776388499944005,1
14608,142,Larynx,Right cTBS,Cons,Clear,101,4,1,0.5565449999994599,1
14609,142,Larynx,Right cTBS,Cons,Clear,102,3,1,0.554546300030779,1
14610,142,Larynx,Right cTBS,Cons,Clear,103,5,1,0.529256399953738,1
14611,142,Larynx,Right cTBS,Cons,Clear,104,4,1,0.521241199981887,1
14612,142,Larynx,Right cTBS,Cons,Clear,105,1,0,0.7274442000198179,1
14613,142,Larynx,Right cTBS,Cons,Clear,106,2,0,0.665292999998201,1
14614,142,Larynx,Right cTBS,Cons,Clear,107,3,1,0.585859499988146,1
14615,142,Larynx,Right cTBS,Cons,Clear,108,5,1,0.653146199998446,1
14616,142,Larynx,Right cTBS,Cons,Clear,109,5,1,0.676290600036737,1
14617,142,Larynx,Right cTBS,Cons,Clear,110,4,1,0.537134200043511,1
14618,142,Larynx,Right cTBS,Cons,Clear,111,4,1,0.5803196000051679,1
14619,142,Larynx,Right cTBS,Cons,Clear,112,4,1,0.475932399975136,1
14620,142,Larynx,Right cTBS,Cons,Clear,113,3,1,0.47592270001769105,1
14621,142,Larynx,Right cTBS,Cons,Clear,114,2,0,0.6539785999921149,1
14622,142,Larynx,Right cTBS,Cons,Clear,115,1,0,0.48800159996608294,1
14623,142,Larynx,Right cTBS,Cons,Clear,116,3,0,1.02526419999776,1
14624,142,Larynx,Right cTBS,Cons,Clear,117,3,1,0.6363358999951739,1
14625,142,Larynx,Right cTBS,Cons,Clear,118,5,1,0.5230024000047709,1
14626,142,Larynx,Right cTBS,Cons,Clear,119,1,0,0.49939160002395505,1
14627,142,Larynx,Right cTBS,Cons,Clear,120,2,0,0.670156299951486,1
14628,142,Larynx,Right cTBS,Cons,Clear,121,1,0,0.50393940001959,1
14629,142,Larynx,Right cTBS,Cons,Clear,122,3,1,0.517938399978448,1
14630,142,Larynx,Right cTBS,Cons,Clear,123,2,0,0.511272199975792,1
14631,142,Larynx,Right cTBS,Cons,Clear,124,2,0,0.7939723000163209,1
14632,142,Larynx,Right cTBS,Cons,Clear,125,3,1,0.526118399982806,1
14633,142,Larynx,Right cTBS,Cons,Clear,126,5,1,0.610532999970019,1
14634,142,Larynx,Right cTBS,Cons,Clear,127,3,1,0.46328069997252896,1
14635,142,Larynx,Right cTBS,Cons,Clear,128,3,1,0.5104458000278099,1
14636,142,Larynx,Right cTBS,Cons,Clear,129,3,1,0.49131930002477003,1
14637,142,Larynx,Right cTBS,Cons,Clear,130,2,1,0.44851059996290105,1
14638,142,Larynx,Right cTBS,Cons,Clear,131,4,1,0.56944619998103,1
14639,142,Larynx,Right cTBS,Cons,Clear,132,4,1,0.513122900039889,1
14640,142,Larynx,Right cTBS,Cons,Clear,133,3,1,0.490125200012699,1
14641,142,Larynx,Right cTBS,Cons,Clear,134,5,1,0.662869399995543,1
14642,142,Larynx,Right cTBS,Cons,Clear,135,3,1,0.42220759997144297,1
14643,142,Larynx,Right cTBS,Cons,Clear,136,4,1,0.588305699988268,1
14644,142,Larynx,Right cTBS,Cons,Clear,137,4,1,0.48744430002989203,1
14645,142,Larynx,Right cTBS,Cons,Clear,138,4,1,0.49199359997874104,1
14646,142,Larynx,Right cTBS,Cons,Clear,139,3,1,0.463863799988758,1
14647,142,Larynx,Right cTBS,Cons,Clear,140,3,1,0.49312840000493496,1
14648,142,Larynx,Right cTBS,Cons,Clear,141,4,1,0.501165400026366,1
14649,142,Larynx,Right cTBS,Cons,Clear,142,5,1,0.391888300015125,1
14650,142,Larynx,Right cTBS,Cons,Clear,143,2,0,0.644515299994964,1
14651,142,Larynx,Right cTBS,Cons,Clear,144,1,0,0.46317349997116297,1
14652,142,Larynx,Right cTBS,Cons,Clear,145,1,0,0.425121299980674,1
14653,142,Larynx,Right cTBS,Cons,Clear,146,3,1,0.6881428000051529,1
14654,142,Larynx,Right cTBS,Cons,Clear,147,2,1,0.553443500015419,1
14655,142,Larynx,Right cTBS,Cons,Clear,148,2,1,0.48136739997426004,1
14656,142,Larynx,Right cTBS,Cons,Clear,149,1,0,0.42345539998496,1
14657,142,Larynx,Right cTBS,Cons,Clear,150,5,1,0.530534100020304,1
14658,142,Larynx,Right cTBS,Cons,Clear,151,5,1,0.574357100005727,1
14659,142,Larynx,Right cTBS,Cons,Clear,152,4,1,0.48946970002725704,1
14660,142,Larynx,Right cTBS,Cons,Clear,153,2,0,0.48460069997236105,1
14661,142,Larynx,Right cTBS,Cons,Clear,154,3,1,0.5749000000068921,1
14662,142,Larynx,Right cTBS,Cons,Clear,155,4,1,0.617668199993204,1
14663,142,Larynx,Right cTBS,Cons,Clear,156,1,0,0.447877000027802,1
15132,142,Larynx,Sham,Cons,Clear,1,3,1,0.556075799999235,1
15133,142,Larynx,Sham,Cons,Clear,2,4,1,0.6121361000004979,1
15134,142,Larynx,Sham,Cons,Clear,3,4,1,0.461367300002166,1
15135,142,Larynx,Sham,Cons,Clear,4,5,1,0.542899300002318,1
15136,142,Larynx,Sham,Cons,Clear,5,4,1,0.508632799999759,1
15137,142,Larynx,Sham,Cons,Clear,6,4,1,0.566834400000516,1
15138,142,Larynx,Sham,Cons,Clear,7,5,1,0.532555499998125,1
15139,142,Larynx,Sham,Cons,Clear,8,5,1,1.14910210000016,1
15140,142,Larynx,Sham,Cons,Clear,9,1,0,0.679281099997752,1
15141,142,Larynx,Sham,Cons,Clear,10,3,1,0.7212709000013999,1
15142,142,Larynx,Sham,Cons,Clear,11,5,1,0.580508500002907,1
15143,142,Larynx,Sham,Cons,Clear,12,2,0,0.7713614999993299,1
15144,142,Larynx,Sham,Cons,Clear,13,3,0,0.780464900002698,1
15145,142,Larynx,Sham,Cons,Clear,14,1,0,0.503642100000434,1
15146,142,Larynx,Sham,Cons,Clear,15,1,0,0.522848199998407,1
15147,142,Larynx,Sham,Cons,Clear,16,2,1,0.5671289999991129,1
15148,142,Larynx,Sham,Cons,Clear,17,3,1,0.731044000000111,1
15149,142,Larynx,Sham,Cons,Clear,18,1,0,0.47095660000195505,1
15150,142,Larynx,Sham,Cons,Clear,19,3,1,0.641048100002081,1
15151,142,Larynx,Sham,Cons,Clear,20,3,1,0.6539682000002359,1
15152,142,Larynx,Sham,Cons,Clear,21,3,0,0.71960559999934,1
15153,142,Larynx,Sham,Cons,Clear,22,4,1,0.560139000001072,1
15154,142,Larynx,Sham,Cons,Clear,23,4,1,0.5050655000013651,1
15155,142,Larynx,Sham,Cons,Clear,24,5,1,0.646535399999266,1
15156,142,Larynx,Sham,Cons,Clear,25,3,0,0.5915338999984671,1
15157,142,Larynx,Sham,Cons,Clear,26,3,1,0.628899800001818,1
15158,142,Larynx,Sham,Cons,Clear,27,3,0,0.557101800000964,1
15159,142,Larynx,Sham,Cons,Clear,28,1,0,0.660137099999702,1
15160,142,Larynx,Sham,Cons,Clear,29,4,1,0.543300100001943,1
15161,142,Larynx,Sham,Cons,Clear,30,2,0,0.502072499999485,1
15162,142,Larynx,Sham,Cons,Clear,31,2,0,0.844994499999302,1
15163,142,Larynx,Sham,Cons,Clear,32,3,1,0.529799100000673,1
15164,142,Larynx,Sham,Cons,Clear,33,4,1,0.7255267000000459,1
15165,142,Larynx,Sham,Cons,Clear,34,5,1,0.5707524999997989,1
15166,142,Larynx,Sham,Cons,Clear,35,2,0,0.548212199999398,1
15167,142,Larynx,Sham,Cons,Clear,36,2,0,0.63633149999805,1
15168,142,Larynx,Sham,Cons,Clear,37,2,1,0.5703360000006801,1
15169,142,Larynx,Sham,Cons,Clear,38,1,0,0.730581299998448,1
15170,142,Larynx,Sham,Cons,Clear,39,2,0,0.7509396999994351,1
15171,142,Larynx,Sham,Cons,Clear,40,4,1,0.4697431999993571,1
15172,142,Larynx,Sham,Cons,Clear,41,3,1,0.9758123999999949,1
15173,142,Larynx,Sham,Cons,Clear,42,4,1,0.6469060000017629,1
15174,142,Larynx,Sham,Cons,Clear,43,1,0,0.638489900000422,1
15175,142,Larynx,Sham,Cons,Clear,44,1,0,0.505169000000024,1
15176,142,Larynx,Sham,Cons,Clear,45,2,0,0.6328907000024631,1
15177,142,Larynx,Sham,Cons,Clear,46,4,1,0.9570526999996221,1
15178,142,Larynx,Sham,Cons,Clear,47,4,0,0.687394500000664,1
15179,142,Larynx,Sham,Cons,Clear,48,5,1,0.939267999998265,1
15180,142,Larynx,Sham,Cons,Clear,49,4,1,0.572082099999534,1
15181,142,Larynx,Sham,Cons,Clear,50,2,0,0.5087850999989311,1
15182,142,Larynx,Sham,Cons,Clear,51,1,0,0.6890944999977359,1
15183,142,Larynx,Sham,Cons,Clear,52,3,1,0.800444999997126,1
15184,142,Larynx,Sham,Cons,Clear,53,5,1,0.834596600001532,1
15185,142,Larynx,Sham,Cons,Clear,54,2,0,0.7062295000032459,1
15186,142,Larynx,Sham,Cons,Clear,55,2,0,0.626545599996462,1
15187,142,Larynx,Sham,Cons,Clear,56,3,1,0.6672032000024051,1
15188,142,Larynx,Sham,Cons,Clear,57,5,1,0.7614646000001809,1
15189,142,Larynx,Sham,Cons,Clear,58,3,0,0.7191284999971691,1
15190,142,Larynx,Sham,Cons,Clear,59,3,1,0.522141400000692,1
15191,142,Larynx,Sham,Cons,Clear,60,2,0,0.7640837999970241,1
15192,142,Larynx,Sham,Cons,Clear,61,3,1,0.49431550000008395,1
15193,142,Larynx,Sham,Cons,Clear,62,4,1,0.536109299999225,1
15194,142,Larynx,Sham,Cons,Clear,63,3,1,0.534142299999075,1
15195,142,Larynx,Sham,Cons,Clear,64,5,1,0.551499199998943,1
15196,142,Larynx,Sham,Cons,Clear,65,3,0,0.610712899997452,1
15197,142,Larynx,Sham,Cons,Clear,66,3,1,0.546110199997202,1
15198,142,Larynx,Sham,Cons,Clear,67,4,1,0.6053524000017211,1
15199,142,Larynx,Sham,Cons,Clear,68,1,0,0.45377809999990903,1
15200,142,Larynx,Sham,Cons,Clear,69,3,1,0.40135759999975607,1
15201,142,Larynx,Sham,Cons,Clear,70,5,1,0.6464684000020501,1
15202,142,Larynx,Sham,Cons,Clear,71,3,1,0.528922800000146,1
15203,142,Larynx,Sham,Cons,Clear,72,4,1,0.9097983000028759,1
15204,142,Larynx,Sham,Cons,Clear,73,5,1,0.7705052999990579,1
15205,142,Larynx,Sham,Cons,Clear,74,2,0,0.51840920000177,1
15206,142,Larynx,Sham,Cons,Clear,75,1,0,0.503255599996919,1
15207,142,Larynx,Sham,Cons,Clear,76,2,0,0.6708225999973371,1
15208,142,Larynx,Sham,Cons,Clear,77,1,0,0.611634900000354,1
15209,142,Larynx,Sham,Cons,Clear,78,2,0,0.5835279000020821,1
15210,142,Larynx,Sham,Cons,Clear,79,5,1,0.425576599998749,1
15211,142,Larynx,Sham,Cons,Clear,80,2,0,0.6992586000014851,1
15212,142,Larynx,Sham,Cons,Clear,81,2,0,0.6388522000015661,1
15213,142,Larynx,Sham,Cons,Clear,82,2,0,0.666051600001083,1
15214,142,Larynx,Sham,Cons,Clear,83,4,1,0.46665270000084996,1
15215,142,Larynx,Sham,Cons,Clear,84,2,0,0.6253066999997829,1
15216,142,Larynx,Sham,Cons,Clear,85,2,0,0.6084227999999711,1
15217,142,Larynx,Sham,Cons,Clear,86,1,0,0.568553299999621,1
15218,142,Larynx,Sham,Cons,Clear,87,5,1,0.6734729000017979,1
15219,142,Larynx,Sham,Cons,Clear,88,5,1,0.8190954000019699,1
15220,142,Larynx,Sham,Cons,Clear,89,3,0,0.760494800000743,1
15221,142,Larynx,Sham,Cons,Clear,90,3,1,0.598821899999166,1
15222,142,Larynx,Sham,Cons,Clear,91,3,1,0.6638931999987111,1
15223,142,Larynx,Sham,Cons,Clear,92,4,1,0.677042200000869,1
15224,142,Larynx,Sham,Cons,Clear,93,4,1,0.547712299998238,1
15225,142,Larynx,Sham,Cons,Clear,94,5,1,0.652937799997744,1
15226,142,Larynx,Sham,Cons,Clear,95,4,1,0.576326099999278,1
15227,142,Larynx,Sham,Cons,Clear,96,5,1,0.688476600000286,1
15228,142,Larynx,Sham,Cons,Clear,97,1,0,0.679985700000543,1
15229,142,Larynx,Sham,Cons,Clear,98,3,1,1.1320367999978798,1
15230,142,Larynx,Sham,Cons,Clear,99,1,0,0.552991700002167,1
15231,142,Larynx,Sham,Cons,Clear,100,3,1,0.438754300001165,1
15232,142,Larynx,Sham,Cons,Clear,101,1,0,0.5115941000003661,1
15233,142,Larynx,Sham,Cons,Clear,102,4,1,0.430973899998207,1
15234,142,Larynx,Sham,Cons,Clear,103,3,0,0.8214603999986141,1
15235,142,Larynx,Sham,Cons,Clear,104,4,1,0.441500999997515,1
15236,142,Larynx,Sham,Cons,Clear,105,2,0,0.572031399999105,1
15237,142,Larynx,Sham,Cons,Clear,106,3,1,0.557421300003625,1
15238,142,Larynx,Sham,Cons,Clear,107,3,1,0.683097899996937,1
15239,142,Larynx,Sham,Cons,Clear,108,5,1,0.6744103000019089,1
15240,142,Larynx,Sham,Cons,Clear,109,3,0,0.9040806999983029,1
15241,142,Larynx,Sham,Cons,Clear,110,2,0,0.808880299999146,1
15242,142,Larynx,Sham,Cons,Clear,111,1,0,0.591128500000195,1
15243,142,Larynx,Sham,Cons,Clear,112,4,1,0.681439500000124,1
15244,142,Larynx,Sham,Cons,Clear,113,3,1,0.7177445999986959,1
15245,142,Larynx,Sham,Cons,Clear,114,4,1,0.663535200001206,1
15246,142,Larynx,Sham,Cons,Clear,115,1,0,0.5907213999998929,1
15247,142,Larynx,Sham,Cons,Clear,116,2,0,0.652258499998425,1
15248,142,Larynx,Sham,Cons,Clear,117,3,1,0.601586500000849,1
15249,142,Larynx,Sham,Cons,Clear,118,1,0,0.43884640000033,1
15250,142,Larynx,Sham,Cons,Clear,119,3,1,0.5016435000034111,1
15251,142,Larynx,Sham,Cons,Clear,120,1,0,0.516758699999627,1
15252,142,Larynx,Sham,Cons,Clear,121,3,1,0.424269999999524,1
15253,142,Larynx,Sham,Cons,Clear,122,2,1,0.647660800001177,1
15254,142,Larynx,Sham,Cons,Clear,123,4,1,0.7505473999990501,1
15255,142,Larynx,Sham,Cons,Clear,124,4,1,0.5948056999986869,1
15256,142,Larynx,Sham,Cons,Clear,125,3,1,0.860292299999855,1
15257,142,Larynx,Sham,Cons,Clear,126,3,1,0.7487202000011169,1
15258,142,Larynx,Sham,Cons,Clear,127,2,0,0.5400616000006271,1
15259,142,Larynx,Sham,Cons,Clear,128,4,1,0.5924715000001021,1
15260,142,Larynx,Sham,Cons,Clear,129,5,1,0.685124100000394,1
15261,142,Larynx,Sham,Cons,Clear,130,2,0,0.5996588999987579,1
15262,142,Larynx,Sham,Cons,Clear,131,1,0,0.540347499998461,1
15263,142,Larynx,Sham,Cons,Clear,132,2,0,0.785832199999277,1
15264,142,Larynx,Sham,Cons,Clear,133,5,1,0.543379200000345,1
15265,142,Larynx,Sham,Cons,Clear,134,3,0,0.610589300002175,1
15266,142,Larynx,Sham,Cons,Clear,135,3,1,0.626920999999129,1
15267,142,Larynx,Sham,Cons,Clear,136,3,0,0.549788200001785,1
15268,142,Larynx,Sham,Cons,Clear,137,2,0,0.9536135999987891,1
15269,142,Larynx,Sham,Cons,Clear,138,3,1,0.5744145999997271,1
15270,142,Larynx,Sham,Cons,Clear,139,4,1,0.814684099997976,1
15271,142,Larynx,Sham,Cons,Clear,140,3,1,0.8828484000005121,1
15272,142,Larynx,Sham,Cons,Clear,141,4,1,0.690249800001766,1
15273,142,Larynx,Sham,Cons,Clear,142,1,0,0.7089027000001809,1
15274,142,Larynx,Sham,Cons,Clear,143,5,1,0.629913699998724,1
15275,142,Larynx,Sham,Cons,Clear,144,2,0,0.558288700001867,1
15276,142,Larynx,Sham,Cons,Clear,145,3,1,0.6077296000003121,1
15277,142,Larynx,Sham,Cons,Clear,146,4,1,0.729061800000636,1
15278,142,Larynx,Sham,Cons,Clear,147,1,0,0.7456076999988,1
15279,142,Larynx,Sham,Cons,Clear,148,1,0,0.861547399999836,1
15280,142,Larynx,Sham,Cons,Clear,149,2,0,0.626924800002598,1
15281,142,Larynx,Sham,Cons,Clear,150,5,1,0.6598634000001771,1
15282,142,Larynx,Sham,Cons,Clear,151,5,1,0.6216482000018001,1
15283,142,Larynx,Sham,Cons,Clear,152,5,1,0.6678327000008721,1
15284,142,Larynx,Sham,Cons,Clear,153,4,1,0.62129780000032,1
15285,142,Larynx,Sham,Cons,Clear,154,3,0,0.586118100000022,1
15286,142,Larynx,Sham,Cons,Clear,155,2,0,0.6799238999992672,1
15287,142,Larynx,Sham,Cons,Clear,156,4,1,0.62818630000038,1
17628,201,Larynx,Right cTBS,Cons,Clear,1,3,1,0.8513478999957441,1
17629,201,Larynx,Right cTBS,Cons,Clear,2,2,0,0.636910900007933,1
17630,201,Larynx,Right cTBS,Cons,Clear,3,1,0,0.60825389996171,1
17631,201,Larynx,Right cTBS,Cons,Clear,4,5,1,0.6226241999538621,1
17632,201,Larynx,Right cTBS,Cons,Clear,5,4,1,0.5424989999737589,1
17633,201,Larynx,Right cTBS,Cons,Clear,6,1,0,0.5416303999954829,1
17634,201,Larynx,Right cTBS,Cons,Clear,7,2,0,0.5002763000084091,1
17635,201,Larynx,Right cTBS,Cons,Clear,8,1,0,0.44876669999212,1
17636,201,Larynx,Right cTBS,Cons,Clear,9,2,0,0.519638299942017,1
17637,201,Larynx,Right cTBS,Cons,Clear,10,3,0,0.8792734000599008,1
17638,201,Larynx,Right cTBS,Cons,Clear,11,2,0,0.652992100105621,1
17639,201,Larynx,Right cTBS,Cons,Clear,12,1,0,0.5536080000456421,1
17640,201,Larynx,Right cTBS,Cons,Clear,13,2,0,0.6818332000402729,1
17641,201,Larynx,Right cTBS,Cons,Clear,14,3,1,0.524722900008783,1
17642,201,Larynx,Right cTBS,Cons,Clear,15,3,1,0.5167108000023289,1
17643,201,Larynx,Right cTBS,Cons,Clear,16,2,1,0.5176543999696149,1
17644,201,Larynx,Right cTBS,Cons,Clear,17,3,1,0.4332110000541429,1
17645,201,Larynx,Right cTBS,Cons,Clear,18,3,1,0.430386500083841,1
17646,201,Larynx,Right cTBS,Cons,Clear,19,3,1,0.39253980002831707,1
17647,201,Larynx,Right cTBS,Cons,Clear,20,2,1,0.387714899959974,1
17648,201,Larynx,Right cTBS,Cons,Clear,21,3,1,0.47191490000113795,1
17649,201,Larynx,Right cTBS,Cons,Clear,22,2,1,0.525630700052716,1
17650,201,Larynx,Right cTBS,Cons,Clear,23,4,1,0.44637469993904205,1
17651,201,Larynx,Right cTBS,Cons,Clear,24,5,1,0.44372009998187395,1
17652,201,Larynx,Right cTBS,Cons,Clear,25,3,1,0.50151360000018,1
17653,201,Larynx,Right cTBS,Cons,Clear,26,5,1,0.454020999954082,1
17654,201,Larynx,Right cTBS,Cons,Clear,27,5,1,0.548802899895236,1
