,subj_idx,group_idx,turn_type,task_type,snr_type,trial_num,step_att,response,rt,step_unatnd
624,55,Larynx,Left cTBS,Tone,Clear,1,3,1,0.6480343000148421,1
625,55,Larynx,Left cTBS,Tone,Clear,2,5,1,0.489868100004969,1
626,55,Larynx,Left cTBS,Tone,Clear,3,5,1,0.45098699998925396,1
627,55,Larynx,Left cTBS,Tone,Clear,4,3,1,0.436913899990032,1
628,55,Larynx,Left cTBS,Tone,Clear,5,4,1,0.43487220001406995,1
629,55,Larynx,Left cTBS,Tone,Clear,6,2,0,0.46721150001394607,1
630,55,Larynx,Left cTBS,Tone,Clear,7,3,1,0.7403330000233841,1
631,55,Larynx,Left cTBS,Tone,Clear,8,3,1,0.5576422999729399,1
632,55,Larynx,Left cTBS,Tone,Clear,9,1,0,0.48837890001596,1
633,55,Larynx,Left cTBS,Tone,Clear,10,2,0,0.5178360999852879,1
634,55,Larynx,Left cTBS,Tone,Clear,11,1,0,0.493879300018307,1
635,55,Larynx,Left cTBS,Tone,Clear,12,1,0,0.5804472000163511,1
636,55,Larynx,Left cTBS,Tone,Clear,13,3,1,0.419108399975812,1
637,55,Larynx,Left cTBS,Tone,Clear,14,3,1,0.459998800011817,1
638,55,Larynx,Left cTBS,Tone,Clear,15,1,0,0.538770000013756,1
639,55,Larynx,Left cTBS,Tone,Clear,16,1,0,0.461385800008429,1
640,55,Larynx,Left cTBS,Tone,Clear,17,3,1,0.511228700022912,1
641,55,Larynx,Left cTBS,Tone,Clear,18,3,1,0.47247420001076507,1
642,55,Larynx,Left cTBS,Tone,Clear,19,4,1,0.6369946000049821,1
643,55,Larynx,Left cTBS,Tone,Clear,20,5,1,0.521011600008933,1
644,55,Larynx,Left cTBS,Tone,Clear,21,2,0,0.6253992999845649,1
645,55,Larynx,Left cTBS,Tone,Clear,22,2,0,0.77170159999514,1
646,55,Larynx,Left cTBS,Tone,Clear,23,5,1,0.724569800018799,1
647,55,Larynx,Left cTBS,Tone,Clear,24,5,1,1.00105469999835,1
648,55,Larynx,Left cTBS,Tone,Clear,25,5,1,0.496224100003019,1
649,55,Larynx,Left cTBS,Tone,Clear,26,2,0,1.02170899999328,1
650,55,Larynx,Left cTBS,Tone,Clear,27,4,1,0.632446100004017,1
651,55,Larynx,Left cTBS,Tone,Clear,28,1,0,0.539831400004914,1
652,55,Larynx,Left cTBS,Tone,Clear,29,2,1,0.23866010000347196,1
653,55,Larynx,Left cTBS,Tone,Clear,30,3,1,0.661057000019355,1
654,55,Larynx,Left cTBS,Tone,Clear,31,4,1,0.8191692999971558,1
655,55,Larynx,Left cTBS,Tone,Clear,32,4,1,0.7544074000034019,1
656,55,Larynx,Left cTBS,Tone,Clear,33,4,1,0.526664800010622,1
657,55,Larynx,Left cTBS,Tone,Clear,34,3,1,0.724907900003018,1
658,55,Larynx,Left cTBS,Tone,Clear,35,3,1,0.747320700000273,1
659,55,Larynx,Left cTBS,Tone,Clear,36,4,1,1.0661433000059302,1
660,55,Larynx,Left cTBS,Tone,Clear,37,2,0,1.2514586999896,1
661,55,Larynx,Left cTBS,Tone,Clear,38,4,1,0.483558700012509,1
662,55,Larynx,Left cTBS,Tone,Clear,39,2,1,0.9767224999959581,1
663,55,Larynx,Left cTBS,Tone,Clear,40,3,1,0.563267299992731,1
664,55,Larynx,Left cTBS,Tone,Clear,41,3,1,0.463429399998859,1
665,55,Larynx,Left cTBS,Tone,Clear,42,4,1,0.5760289000172629,1
666,55,Larynx,Left cTBS,Tone,Clear,43,5,1,0.567749899986666,1
667,55,Larynx,Left cTBS,Tone,Clear,44,5,1,2.4965565000020398,1
668,55,Larynx,Left cTBS,Tone,Clear,45,2,0,0.733042599982582,1
669,55,Larynx,Left cTBS,Tone,Clear,46,5,1,0.556023000011919,1
670,55,Larynx,Left cTBS,Tone,Clear,47,2,0,0.615535900025861,1
671,55,Larynx,Left cTBS,Tone,Clear,48,1,1,1.10018389998004,1
672,55,Larynx,Left cTBS,Tone,Clear,49,1,1,0.8616355000121979,1
673,55,Larynx,Left cTBS,Tone,Clear,50,3,1,0.000402500008931383,1
674,55,Larynx,Left cTBS,Tone,Clear,51,4,1,0.000643999985186383,1
675,55,Larynx,Left cTBS,Tone,Clear,52,3,1,3.6717777999874706,1
676,55,Larynx,Left cTBS,Tone,Clear,53,2,1,0.7740224000008309,1
677,55,Larynx,Left cTBS,Tone,Clear,54,3,1,0.543785699992441,1
678,55,Larynx,Left cTBS,Tone,Clear,55,5,1,0.698828000022331,1
679,55,Larynx,Left cTBS,Tone,Clear,56,1,0,0.665979400015203,1
680,55,Larynx,Left cTBS,Tone,Clear,57,4,1,0.620336099993438,1
681,55,Larynx,Left cTBS,Tone,Clear,58,4,1,0.5257090000086461,1
682,55,Larynx,Left cTBS,Tone,Clear,59,2,0,0.557303099980345,1
683,55,Larynx,Left cTBS,Tone,Clear,60,4,1,0.47382189999916596,1
684,55,Larynx,Left cTBS,Tone,Clear,61,2,1,0.9892636000004129,1
685,55,Larynx,Left cTBS,Tone,Clear,62,4,1,0.47522289998596506,1
686,55,Larynx,Left cTBS,Tone,Clear,63,2,0,0.6131654999917371,1
687,55,Larynx,Left cTBS,Tone,Clear,64,3,1,0.47240129997953795,1
688,55,Larynx,Left cTBS,Tone,Clear,65,3,1,0.669395399978384,1
689,55,Larynx,Left cTBS,Tone,Clear,66,2,0,0.463685700000497,1
690,55,Larynx,Left cTBS,Tone,Clear,67,1,0,0.558280600002036,1
691,55,Larynx,Left cTBS,Tone,Clear,68,3,1,0.78637419998995,1
692,55,Larynx,Left cTBS,Tone,Clear,69,5,0,0.627846899995347,1
693,55,Larynx,Left cTBS,Tone,Clear,70,1,0,0.6790676999953579,1
694,55,Larynx,Left cTBS,Tone,Clear,71,3,1,0.735456399997929,1
695,55,Larynx,Left cTBS,Tone,Clear,72,3,1,1.1692162000108501,1
696,55,Larynx,Left cTBS,Tone,Clear,73,1,0,0.552446399990004,1
697,55,Larynx,Left cTBS,Tone,Clear,74,4,1,0.795623499987414,1
698,55,Larynx,Left cTBS,Tone,Clear,75,3,1,1.2283282999996998,1
699,55,Larynx,Left cTBS,Tone,Clear,76,5,1,0.621328700013692,1
700,55,Larynx,Left cTBS,Tone,Clear,77,4,1,0.7371684999961869,1
701,55,Larynx,Left cTBS,Tone,Clear,78,2,0,0.815105699992273,1
702,55,Larynx,Left cTBS,Tone,Clear,79,4,1,0.641296999994665,1
703,55,Larynx,Left cTBS,Tone,Clear,80,2,0,1.24772089999169,1
704,55,Larynx,Left cTBS,Tone,Clear,81,2,0,0.973330699984217,1
705,55,Larynx,Left cTBS,Tone,Clear,82,3,1,0.65117850000388,1
706,55,Larynx,Left cTBS,Tone,Clear,83,3,1,0.963696299993899,1
707,55,Larynx,Left cTBS,Tone,Clear,84,3,1,0.795610700006364,1
708,55,Larynx,Left cTBS,Tone,Clear,85,2,0,1.74446570000146,1
709,55,Larynx,Left cTBS,Tone,Clear,86,4,1,0.708935200003907,1
710,55,Larynx,Left cTBS,Tone,Clear,87,4,1,0.829099199996563,1
711,55,Larynx,Left cTBS,Tone,Clear,88,1,0,0.76717639999697,1
712,55,Larynx,Left cTBS,Tone,Clear,89,3,1,0.67789919997449,1
713,55,Larynx,Left cTBS,Tone,Clear,90,3,1,0.657584100001259,1
714,55,Larynx,Left cTBS,Tone,Clear,91,4,1,0.729006899986416,1
715,55,Larynx,Left cTBS,Tone,Clear,92,1,0,0.6106305000139399,1
716,55,Larynx,Left cTBS,Tone,Clear,93,1,0,0.629569300013827,1
717,55,Larynx,Left cTBS,Tone,Clear,94,2,0,0.577366899990011,1
718,55,Larynx,Left cTBS,Tone,Clear,95,1,1,0.692230199987534,1
719,55,Larynx,Left cTBS,Tone,Clear,96,2,0,0.7313504999910949,1
720,55,Larynx,Left cTBS,Tone,Clear,97,3,1,0.967558200005442,1
721,55,Larynx,Left cTBS,Tone,Clear,98,2,0,3.3140552000259,1
722,55,Larynx,Left cTBS,Tone,Clear,99,5,1,1.18601730000228,1
723,55,Larynx,Left cTBS,Tone,Clear,100,3,1,0.585554399993271,1
724,55,Larynx,Left cTBS,Tone,Clear,101,4,1,0.686737300013192,1
725,55,Larynx,Left cTBS,Tone,Clear,102,3,1,0.514598100009607,1
726,55,Larynx,Left cTBS,Tone,Clear,103,5,1,0.7711831999768041,1
727,55,Larynx,Left cTBS,Tone,Clear,104,4,1,0.8137784999853471,1
728,55,Larynx,Left cTBS,Tone,Clear,105,4,1,0.673842899996089,1
729,55,Larynx,Left cTBS,Tone,Clear,106,5,1,0.6721929000050301,1
730,55,Larynx,Left cTBS,Tone,Clear,107,3,1,0.717700899986085,1
731,55,Larynx,Left cTBS,Tone,Clear,108,5,1,0.638682200020412,1
732,55,Larynx,Left cTBS,Tone,Clear,109,2,0,0.5644717999966821,1
733,55,Larynx,Left cTBS,Tone,Clear,110,4,1,0.5949140999873629,1
734,55,Larynx,Left cTBS,Tone,Clear,111,5,1,0.545023999991827,1
735,55,Larynx,Left cTBS,Tone,Clear,112,2,1,0.621269300027052,1
736,55,Larynx,Left cTBS,Tone,Clear,113,3,1,1.22309159999713,1
737,55,Larynx,Left cTBS,Tone,Clear,114,1,0,1.26563839998562,1
738,55,Larynx,Left cTBS,Tone,Clear,115,1,0,0.97858150000684,1
739,55,Larynx,Left cTBS,Tone,Clear,116,5,0,0.8086290000064759,1
740,55,Larynx,Left cTBS,Tone,Clear,117,3,1,1.03004840001813,1
741,55,Larynx,Left cTBS,Tone,Clear,118,2,0,0.5977201999921821,1
742,55,Larynx,Left cTBS,Tone,Clear,119,1,0,0.5829285999934649,1
743,55,Larynx,Left cTBS,Tone,Clear,120,5,1,0.633885799994459,1
744,55,Larynx,Left cTBS,Tone,Clear,121,5,1,0.508934299985413,1
745,55,Larynx,Left cTBS,Tone,Clear,122,2,1,1.32423810000182,1
746,55,Larynx,Left cTBS,Tone,Clear,123,5,1,0.667019499989692,1
747,55,Larynx,Left cTBS,Tone,Clear,124,4,1,0.6572536000167021,1
748,55,Larynx,Left cTBS,Tone,Clear,125,4,1,0.535494700015988,1
749,55,Larynx,Left cTBS,Tone,Clear,126,2,0,0.993107599992072,1
750,55,Larynx,Left cTBS,Tone,Clear,127,4,1,2.59894589998294,1
751,55,Larynx,Left cTBS,Tone,Clear,128,2,0,0.645536299998639,1
752,55,Larynx,Left cTBS,Tone,Clear,129,1,0,1.04205560000264,1
753,55,Larynx,Left cTBS,Tone,Clear,130,5,1,2.27470969999558,1
754,55,Larynx,Left cTBS,Tone,Clear,131,3,1,1.08898780000163,1
755,55,Larynx,Left cTBS,Tone,Clear,132,3,1,0.6639602000068411,1
756,55,Larynx,Left cTBS,Tone,Clear,133,1,0,1.5583216999948502,1
757,55,Larynx,Left cTBS,Tone,Clear,134,1,0,0.6543265999935101,1
758,55,Larynx,Left cTBS,Tone,Clear,135,3,1,0.65209520002827,1
759,55,Larynx,Left cTBS,Tone,Clear,136,3,1,3.5922144000069203,1
760,55,Larynx,Left cTBS,Tone,Clear,137,5,1,0.687683700001799,1
761,55,Larynx,Left cTBS,Tone,Clear,138,4,1,0.8504516000102741,1
762,55,Larynx,Left cTBS,Tone,Clear,139,3,1,0.8008618000021669,1
763,55,Larynx,Left cTBS,Tone,Clear,140,4,1,0.539064900018275,1
764,55,Larynx,Left cTBS,Tone,Clear,141,3,1,0.624595700006466,1
765,55,Larynx,Left cTBS,Tone,Clear,142,3,1,0.68848350000917,1
766,55,Larynx,Left cTBS,Tone,Clear,143,3,1,0.8453109000111,1
767,55,Larynx,Left cTBS,Tone,Clear,144,3,1,0.00024619998293928797,1
768,55,Larynx,Left cTBS,Tone,Clear,145,3,1,0.0008206000202335419,1
769,55,Larynx,Left cTBS,Tone,Clear,146,1,1,0.000255199993262067,1
770,55,Larynx,Left cTBS,Tone,Clear,147,2,0,1.3766802999889498,1
771,55,Larynx,Left cTBS,Tone,Clear,148,3,1,0.59799949999433,1
772,55,Larynx,Left cTBS,Tone,Clear,149,2,0,0.750616599980276,1
773,55,Larynx,Left cTBS,Tone,Clear,150,4,1,0.643545300001279,1
774,55,Larynx,Left cTBS,Tone,Clear,151,4,1,0.584913900005631,1
775,55,Larynx,Left cTBS,Tone,Clear,152,1,0,0.550569899991388,1
776,55,Larynx,Left cTBS,Tone,Clear,153,2,0,0.658537499984959,1
777,55,Larynx,Left cTBS,Tone,Clear,154,2,0,0.6885435000003779,1
778,55,Larynx,Left cTBS,Tone,Clear,155,5,1,0.526070699997945,1
779,55,Larynx,Left cTBS,Tone,Clear,156,4,1,0.511298400000669,1
2496,55,Larynx,Sham,Tone,Clear,1,3,1,1.16881900001317,1
2497,55,Larynx,Sham,Tone,Clear,2,3,1,0.6229444000637161,1
2498,55,Larynx,Sham,Tone,Clear,3,5,1,0.5427850000560279,1
2499,55,Larynx,Sham,Tone,Clear,4,1,0,0.521256300038658,1
2500,55,Larynx,Sham,Tone,Clear,5,2,0,1.0965779999969498,1
2501,55,Larynx,Sham,Tone,Clear,6,3,1,0.7118821999756619,1
2502,55,Larynx,Sham,Tone,Clear,7,2,1,1.24664759996813,1
2503,55,Larynx,Sham,Tone,Clear,8,2,1,0.6426535999635229,1
2504,55,Larynx,Sham,Tone,Clear,9,5,1,0.603717499994673,1
2505,55,Larynx,Sham,Tone,Clear,10,4,1,0.5435097999870779,1
2506,55,Larynx,Sham,Tone,Clear,11,5,1,0.876524100080132,1
2507,55,Larynx,Sham,Tone,Clear,12,1,0,0.6741131999297071,1
2508,55,Larynx,Sham,Tone,Clear,13,1,0,0.574243400013074,1
2509,55,Larynx,Sham,Tone,Clear,14,4,1,0.5846750000491739,1
2510,55,Larynx,Sham,Tone,Clear,15,5,1,1.0364407999440999,1
2511,55,Larynx,Sham,Tone,Clear,16,2,1,2.95307950000279,1
2512,55,Larynx,Sham,Tone,Clear,17,4,1,0.711600700044073,1
2513,55,Larynx,Sham,Tone,Clear,18,4,1,1.07111579994671,1
2514,55,Larynx,Sham,Tone,Clear,19,3,1,0.56396209995728,1
2515,55,Larynx,Sham,Tone,Clear,20,3,1,0.515576799982227,1
2516,55,Larynx,Sham,Tone,Clear,21,2,1,2.68179109995253,1
2517,55,Larynx,Sham,Tone,Clear,22,1,0,0.639202299993485,1
2518,55,Larynx,Sham,Tone,Clear,23,4,1,0.691141200019047,1
2519,55,Larynx,Sham,Tone,Clear,24,3,1,0.8956523000961171,1
2520,55,Larynx,Sham,Tone,Clear,25,3,1,0.6435827999375761,1
2521,55,Larynx,Sham,Tone,Clear,26,3,1,0.883813200052828,1
2522,55,Larynx,Sham,Tone,Clear,27,1,0,0.6890199999324979,1
2523,55,Larynx,Sham,Tone,Clear,28,5,1,0.664948099991307,1
2524,55,Larynx,Sham,Tone,Clear,29,2,0,2.2324013999896097,1
2525,55,Larynx,Sham,Tone,Clear,30,4,1,1.25563159992453,1
2526,55,Larynx,Sham,Tone,Clear,31,2,0,0.669360700063407,1
2527,55,Larynx,Sham,Tone,Clear,32,3,1,1.1706902999430902,1
2528,55,Larynx,Sham,Tone,Clear,33,3,1,0.8368011000566179,1
2529,55,Larynx,Sham,Tone,Clear,34,2,1,1.86905669991393,1
2530,55,Larynx,Sham,Tone,Clear,35,4,1,0.644219999900088,1
2531,55,Larynx,Sham,Tone,Clear,36,3,1,0.927137000020593,1
2532,55,Larynx,Sham,Tone,Clear,37,5,1,0.693377599935047,1
2533,55,Larynx,Sham,Tone,Clear,38,1,0,0.56275669997558,1
2534,55,Larynx,Sham,Tone,Clear,39,4,1,0.923118100035936,1
2535,55,Larynx,Sham,Tone,Clear,40,5,1,0.610601200023666,1
2536,55,Larynx,Sham,Tone,Clear,41,3,1,0.713091999990866,1
2537,55,Larynx,Sham,Tone,Clear,42,3,1,0.7634973999811341,1
2538,55,Larynx,Sham,Tone,Clear,43,4,1,0.720973399933428,1
2539,55,Larynx,Sham,Tone,Clear,44,3,1,0.793034699978307,1
2540,55,Larynx,Sham,Tone,Clear,45,4,1,1.46119459997863,1
2541,55,Larynx,Sham,Tone,Clear,46,1,0,0.648440200020559,1
2542,55,Larynx,Sham,Tone,Clear,47,3,1,1.20539150002878,1
2543,55,Larynx,Sham,Tone,Clear,48,2,0,1.29794419999234,1
2544,55,Larynx,Sham,Tone,Clear,49,1,0,0.8098574000177909,1
2545,55,Larynx,Sham,Tone,Clear,50,4,1,0.651255900040269,1
2546,55,Larynx,Sham,Tone,Clear,51,3,1,0.8636850999901071,1
2547,55,Larynx,Sham,Tone,Clear,52,3,1,1.59669440006837,1
2548,55,Larynx,Sham,Tone,Clear,53,1,0,0.637204200029373,1
2549,55,Larynx,Sham,Tone,Clear,54,5,1,0.730239399941638,1
2550,55,Larynx,Sham,Tone,Clear,55,2,1,0.75552120001521,1
2551,55,Larynx,Sham,Tone,Clear,56,1,0,0.8031847000820559,1
2552,55,Larynx,Sham,Tone,Clear,57,4,1,0.61292730004061,1
2553,55,Larynx,Sham,Tone,Clear,58,4,1,0.604926100000739,1
2554,55,Larynx,Sham,Tone,Clear,59,2,1,0.93306810001377,1
2555,55,Larynx,Sham,Tone,Clear,60,2,0,1.85759089991916,1
2556,55,Larynx,Sham,Tone,Clear,61,4,1,1.5799775000196001,1
2557,55,Larynx,Sham,Tone,Clear,62,3,1,0.6203653999837121,1
2558,55,Larynx,Sham,Tone,Clear,63,2,0,0.983969600056298,1
2559,55,Larynx,Sham,Tone,Clear,64,3,1,1.76361569995061,1
2560,55,Larynx,Sham,Tone,Clear,65,3,1,0.7866274999687449,1
2561,55,Larynx,Sham,Tone,Clear,66,5,1,0.684473900008015,1
2562,55,Larynx,Sham,Tone,Clear,67,2,0,2.7728070999728502,1
2563,55,Larynx,Sham,Tone,Clear,68,2,0,1.01113899995107,1
2564,55,Larynx,Sham,Tone,Clear,69,4,1,0.584203100064769,1
2565,55,Larynx,Sham,Tone,Clear,70,5,1,0.507637600065209,1
2566,55,Larynx,Sham,Tone,Clear,71,1,0,0.595189100014977,1
2567,55,Larynx,Sham,Tone,Clear,72,5,1,0.706576099968515,1
2568,55,Larynx,Sham,Tone,Clear,73,1,0,0.570827799965627,1
2569,55,Larynx,Sham,Tone,Clear,74,4,1,0.8997565000317991,1
2570,55,Larynx,Sham,Tone,Clear,75,3,1,0.8135910000419241,1
2571,55,Larynx,Sham,Tone,Clear,76,2,0,2.0464467999991,1
2572,55,Larynx,Sham,Tone,Clear,77,3,1,0.8287455000681802,1
2573,55,Larynx,Sham,Tone,Clear,78,5,1,0.691364800091833,1
2574,55,Larynx,Sham,Tone,Clear,79,4,1,0.56891499995254,1
2575,55,Larynx,Sham,Tone,Clear,80,5,1,1.1224273000843799,1
2576,55,Larynx,Sham,Tone,Clear,81,2,0,1.4627089999848997,1
2577,55,Larynx,Sham,Tone,Clear,82,3,0,2.78116520005278,1
2578,55,Larynx,Sham,Tone,Clear,83,4,1,1.13467719999608,1
2579,55,Larynx,Sham,Tone,Clear,84,4,1,1.21983129996806,1
2580,55,Larynx,Sham,Tone,Clear,85,2,1,1.05313190002926,1
2581,55,Larynx,Sham,Tone,Clear,86,2,1,0.6470536999404429,1
2582,55,Larynx,Sham,Tone,Clear,87,3,1,0.703610799973831,1
2583,55,Larynx,Sham,Tone,Clear,88,5,1,0.622508800006472,1
2584,55,Larynx,Sham,Tone,Clear,89,1,0,0.539680799935013,1
2585,55,Larynx,Sham,Tone,Clear,90,4,1,0.630617000046186,1
2586,55,Larynx,Sham,Tone,Clear,91,3,1,0.682136000017636,1
2587,55,Larynx,Sham,Tone,Clear,92,1,0,0.5421453000744799,1
2588,55,Larynx,Sham,Tone,Clear,93,3,1,0.6444041000213471,1
2589,55,Larynx,Sham,Tone,Clear,94,3,1,0.61515500000678,1
2590,55,Larynx,Sham,Tone,Clear,95,1,0,0.54343910003081,1
2591,55,Larynx,Sham,Tone,Clear,96,2,0,1.04370010003913,1
2592,55,Larynx,Sham,Tone,Clear,97,5,1,0.759939100011252,1
2593,55,Larynx,Sham,Tone,Clear,98,5,1,0.5216468999860809,1
2594,55,Larynx,Sham,Tone,Clear,99,4,1,0.773355499957688,1
2595,55,Larynx,Sham,Tone,Clear,100,3,1,0.621327699976973,1
2596,55,Larynx,Sham,Tone,Clear,101,3,1,0.7802087999880309,1
2597,55,Larynx,Sham,Tone,Clear,102,5,1,0.616277400054969,1
2598,55,Larynx,Sham,Tone,Clear,103,4,1,0.665646699955687,1
2599,55,Larynx,Sham,Tone,Clear,104,3,1,0.6320730999577789,1
2600,55,Larynx,Sham,Tone,Clear,105,2,0,0.961536300019361,1
2601,55,Larynx,Sham,Tone,Clear,106,4,1,0.69562550005503,1
2602,55,Larynx,Sham,Tone,Clear,107,1,0,0.6597559000365439,1
2603,55,Larynx,Sham,Tone,Clear,108,1,0,0.6577935999957839,1
2604,55,Larynx,Sham,Tone,Clear,109,3,1,0.812088100006804,1
2605,55,Larynx,Sham,Tone,Clear,110,2,0,0.661941000027582,1
2606,55,Larynx,Sham,Tone,Clear,111,1,0,1.06566009996459,1
2607,55,Larynx,Sham,Tone,Clear,112,5,1,0.58662329998333,1
2608,55,Larynx,Sham,Tone,Clear,113,2,0,0.667902999906801,1
2609,55,Larynx,Sham,Tone,Clear,114,4,1,1.22181979997549,1
2610,55,Larynx,Sham,Tone,Clear,115,3,1,0.912234100047499,1
2611,55,Larynx,Sham,Tone,Clear,116,3,1,0.715524800005369,1
2612,55,Larynx,Sham,Tone,Clear,117,2,0,0.565462099970318,1
2613,55,Larynx,Sham,Tone,Clear,118,1,0,0.53840710001532,1
2614,55,Larynx,Sham,Tone,Clear,119,4,1,0.515047600027174,1
2615,55,Larynx,Sham,Tone,Clear,120,4,1,2.26357510010712,1
2616,55,Larynx,Sham,Tone,Clear,121,2,1,1.31948270008434,1
2617,55,Larynx,Sham,Tone,Clear,122,1,1,1.31763710000087,1
2618,55,Larynx,Sham,Tone,Clear,123,2,1,1.99861399992369,1
2619,55,Larynx,Sham,Tone,Clear,124,5,1,0.6650852999882769,1
2620,55,Larynx,Sham,Tone,Clear,125,4,1,0.641834700014442,1
2621,55,Larynx,Sham,Tone,Clear,126,2,0,0.598786500049755,1
2622,55,Larynx,Sham,Tone,Clear,127,3,1,0.7919549000216651,1
2623,55,Larynx,Sham,Tone,Clear,128,4,1,0.578907700022683,1
2624,55,Larynx,Sham,Tone,Clear,129,3,1,1.05117230000906,1
2625,55,Larynx,Sham,Tone,Clear,130,1,0,0.6718397999648,1
2626,55,Larynx,Sham,Tone,Clear,131,2,0,0.8410573999863119,1
2627,55,Larynx,Sham,Tone,Clear,132,1,0,0.6992438999004661,1
2628,55,Larynx,Sham,Tone,Clear,133,3,1,0.982154399971478,1
2629,55,Larynx,Sham,Tone,Clear,134,4,1,0.6586527000181379,1
2630,55,Larynx,Sham,Tone,Clear,135,3,1,0.500173399923369,1
2631,55,Larynx,Sham,Tone,Clear,136,3,1,0.508990100002848,1
2632,55,Larynx,Sham,Tone,Clear,137,5,1,0.5394506000448019,1
2633,55,Larynx,Sham,Tone,Clear,138,2,0,0.615517399972305,1
2634,55,Larynx,Sham,Tone,Clear,139,3,1,0.62746990006417,1
2635,55,Larynx,Sham,Tone,Clear,140,2,1,0.6874280999181789,1
2636,55,Larynx,Sham,Tone,Clear,141,5,1,0.547228300012648,1
2637,55,Larynx,Sham,Tone,Clear,142,3,1,0.592347800033167,1
2638,55,Larynx,Sham,Tone,Clear,143,5,1,0.577419799985364,1
2639,55,Larynx,Sham,Tone,Clear,144,2,0,0.625134599977173,1
2640,55,Larynx,Sham,Tone,Clear,145,3,1,0.8758702999912199,1
2641,55,Larynx,Sham,Tone,Clear,146,1,0,0.601128799957223,1
2642,55,Larynx,Sham,Tone,Clear,147,3,1,0.6567192999646071,1
2643,55,Larynx,Sham,Tone,Clear,148,4,1,0.6903470000252131,1
2644,55,Larynx,Sham,Tone,Clear,149,4,1,0.938723100000061,1
2645,55,Larynx,Sham,Tone,Clear,150,2,0,0.594424999901094,1
2646,55,Larynx,Sham,Tone,Clear,151,5,1,0.871214700047858,1
2647,55,Larynx,Sham,Tone,Clear,152,3,1,0.628024899982847,1
2648,55,Larynx,Sham,Tone,Clear,153,3,1,0.678541900007986,1
2649,55,Larynx,Sham,Tone,Clear,154,5,1,0.699947100016288,1
2650,55,Larynx,Sham,Tone,Clear,155,4,1,1.39651340001728,1
2651,55,Larynx,Sham,Tone,Clear,156,1,0,0.5856899999780579,1
3744,104,Larynx,Left cTBS,Tone,Clear,1,3,0,0.512143499916419,1
3745,104,Larynx,Left cTBS,Tone,Clear,2,4,1,0.399219200015068,1
3746,104,Larynx,Left cTBS,Tone,Clear,3,2,1,0.42983449995517703,1
3747,104,Larynx,Left cTBS,Tone,Clear,4,5,1,0.43783079995773705,1
3748,104,Larynx,Left cTBS,Tone,Clear,5,2,0,0.536141699994914,1
3749,104,Larynx,Left cTBS,Tone,Clear,6,3,1,0.5523020999971779,1
3750,104,Larynx,Left cTBS,Tone,Clear,7,2,1,0.7556710999924691,1
3751,104,Larynx,Left cTBS,Tone,Clear,8,5,1,0.491240600007586,1
3752,104,Larynx,Left cTBS,Tone,Clear,9,1,0,0.559713399969041,1
3753,104,Larynx,Left cTBS,Tone,Clear,10,3,1,0.48619590001180796,1
3754,104,Larynx,Left cTBS,Tone,Clear,11,4,1,0.443871199968271,1
3755,104,Larynx,Left cTBS,Tone,Clear,12,3,0,0.5103798999916761,1
3756,104,Larynx,Left cTBS,Tone,Clear,13,5,1,0.4356072000227871,1
3757,104,Larynx,Left cTBS,Tone,Clear,14,4,1,0.519367299973965,1
3758,104,Larynx,Left cTBS,Tone,Clear,15,4,1,0.431357999914326,1
3759,104,Larynx,Left cTBS,Tone,Clear,16,2,0,0.557938999962062,1
3760,104,Larynx,Left cTBS,Tone,Clear,17,4,1,0.42450129997450897,1
3761,104,Larynx,Left cTBS,Tone,Clear,18,3,1,0.402952099917457,1
3762,104,Larynx,Left cTBS,Tone,Clear,19,1,1,0.420433299965225,1
3763,104,Larynx,Left cTBS,Tone,Clear,20,2,1,0.486691600061022,1
3764,104,Larynx,Left cTBS,Tone,Clear,21,3,1,0.528338299947791,1
3765,104,Larynx,Left cTBS,Tone,Clear,22,5,1,0.5419197999872271,1
3766,104,Larynx,Left cTBS,Tone,Clear,23,4,1,0.468530899961479,1
3767,104,Larynx,Left cTBS,Tone,Clear,24,1,0,0.455613499972969,1
3768,104,Larynx,Left cTBS,Tone,Clear,25,5,1,0.562974100001156,1
3769,104,Larynx,Left cTBS,Tone,Clear,26,2,1,0.45948240009602204,1
3770,104,Larynx,Left cTBS,Tone,Clear,27,3,1,0.61311699997168,1
3771,104,Larynx,Left cTBS,Tone,Clear,28,1,0,0.500919200014323,1
3772,104,Larynx,Left cTBS,Tone,Clear,29,4,1,0.6419362999731669,1
3773,104,Larynx,Left cTBS,Tone,Clear,30,1,0,0.544158900040202,1
3774,104,Larynx,Left cTBS,Tone,Clear,31,1,0,0.554917200002819,1
3775,104,Larynx,Left cTBS,Tone,Clear,32,3,1,0.500451500061899,1
3776,104,Larynx,Left cTBS,Tone,Clear,33,5,1,0.455185999977402,1
3777,104,Larynx,Left cTBS,Tone,Clear,34,2,0,0.585367500083521,1
3778,104,Larynx,Left cTBS,Tone,Clear,35,4,1,0.6370196000207221,1
3779,104,Larynx,Left cTBS,Tone,Clear,36,2,0,0.50759970000945,1
3780,104,Larynx,Left cTBS,Tone,Clear,37,3,0,0.46097389992792204,1
3781,104,Larynx,Left cTBS,Tone,Clear,38,3,1,0.485480499919504,1
3782,104,Larynx,Left cTBS,Tone,Clear,39,3,1,0.525300400098786,1
3783,104,Larynx,Left cTBS,Tone,Clear,40,2,0,0.47761609998997295,1
3784,104,Larynx,Left cTBS,Tone,Clear,41,4,0,0.46375909994821995,1
3785,104,Larynx,Left cTBS,Tone,Clear,42,4,1,0.466564900008962,1
3786,104,Larynx,Left cTBS,Tone,Clear,43,2,0,0.69671070005279,1
3787,104,Larynx,Left cTBS,Tone,Clear,44,3,1,0.531498400028795,1
3788,104,Larynx,Left cTBS,Tone,Clear,45,3,1,0.533799699973315,1
3789,104,Larynx,Left cTBS,Tone,Clear,46,1,0,0.473884699982591,1
3790,104,Larynx,Left cTBS,Tone,Clear,47,4,1,0.49079209996853,1
3791,104,Larynx,Left cTBS,Tone,Clear,48,3,1,0.500474200001918,1
3792,104,Larynx,Left cTBS,Tone,Clear,49,2,0,0.590598199982196,1
3793,104,Larynx,Left cTBS,Tone,Clear,50,5,1,0.45794220000971103,1
3794,104,Larynx,Left cTBS,Tone,Clear,51,1,0,0.511836700025015,1
3795,104,Larynx,Left cTBS,Tone,Clear,52,5,1,0.38701140007469803,1
3796,104,Larynx,Left cTBS,Tone,Clear,53,4,1,0.5593373000156129,1
3797,104,Larynx,Left cTBS,Tone,Clear,54,3,0,0.546319900080562,1
3798,104,Larynx,Left cTBS,Tone,Clear,55,1,0,0.496934600058012,1
3799,104,Larynx,Left cTBS,Tone,Clear,56,5,1,0.478921599918976,1
3800,104,Larynx,Left cTBS,Tone,Clear,57,3,1,0.43082539993338304,1
3801,104,Larynx,Left cTBS,Tone,Clear,58,4,1,0.42643590003717696,1
3802,104,Larynx,Left cTBS,Tone,Clear,59,3,1,0.41377469990402505,1
3803,104,Larynx,Left cTBS,Tone,Clear,60,2,0,0.6332139000296589,1
3804,104,Larynx,Left cTBS,Tone,Clear,61,3,1,0.45928599999751896,1
3805,104,Larynx,Left cTBS,Tone,Clear,62,3,1,0.352828699979,1
3806,104,Larynx,Left cTBS,Tone,Clear,63,2,0,0.5300174000440171,1
3807,104,Larynx,Left cTBS,Tone,Clear,64,5,1,0.40704870002809895,1
3808,104,Larynx,Left cTBS,Tone,Clear,65,5,1,0.36438970000017407,1
3809,104,Larynx,Left cTBS,Tone,Clear,66,1,0,0.581195999984629,1
3810,104,Larynx,Left cTBS,Tone,Clear,67,3,1,0.537079200032167,1
3811,104,Larynx,Left cTBS,Tone,Clear,68,4,1,0.46671569999307394,1
3812,104,Larynx,Left cTBS,Tone,Clear,69,2,1,0.534835699945688,1
3813,104,Larynx,Left cTBS,Tone,Clear,70,3,1,0.516601899988018,1
3814,104,Larynx,Left cTBS,Tone,Clear,71,3,0,0.558257899945602,1
3815,104,Larynx,Left cTBS,Tone,Clear,72,2,0,0.561231900006533,1
3816,104,Larynx,Left cTBS,Tone,Clear,73,1,1,0.49152889999095395,1
3817,104,Larynx,Left cTBS,Tone,Clear,74,4,1,0.471716700005345,1
3818,104,Larynx,Left cTBS,Tone,Clear,75,5,1,0.49186119996011296,1
3819,104,Larynx,Left cTBS,Tone,Clear,76,1,0,0.63389079994522,1
3820,104,Larynx,Left cTBS,Tone,Clear,77,2,0,0.5829817000776529,1
3821,104,Larynx,Left cTBS,Tone,Clear,78,4,1,0.572914999909699,1
3822,104,Larynx,Left cTBS,Tone,Clear,79,3,0,0.505672200000845,1
3823,104,Larynx,Left cTBS,Tone,Clear,80,4,1,0.672236699960195,1
3824,104,Larynx,Left cTBS,Tone,Clear,81,2,0,0.496357499971054,1
3825,104,Larynx,Left cTBS,Tone,Clear,82,1,0,0.5742618999211121,1
3826,104,Larynx,Left cTBS,Tone,Clear,83,1,0,0.550490100053139,1
3827,104,Larynx,Left cTBS,Tone,Clear,84,3,1,0.58873560000211,1
3828,104,Larynx,Left cTBS,Tone,Clear,85,3,1,0.507549799978733,1
3829,104,Larynx,Left cTBS,Tone,Clear,86,5,0,0.572536799940281,1
3830,104,Larynx,Left cTBS,Tone,Clear,87,5,1,0.572164800018072,1
3831,104,Larynx,Left cTBS,Tone,Clear,88,3,0,0.564451599959284,1
3832,104,Larynx,Left cTBS,Tone,Clear,89,3,1,0.553260400076397,1
3833,104,Larynx,Left cTBS,Tone,Clear,90,3,1,0.58858079998754,1
3834,104,Larynx,Left cTBS,Tone,Clear,91,4,1,0.441286599962041,1
3835,104,Larynx,Left cTBS,Tone,Clear,92,2,0,0.60230979998596,1
3836,104,Larynx,Left cTBS,Tone,Clear,93,3,1,0.42948419996537296,1
3837,104,Larynx,Left cTBS,Tone,Clear,94,4,1,0.4251523999264461,1
3838,104,Larynx,Left cTBS,Tone,Clear,95,5,1,0.595077799982391,1
3839,104,Larynx,Left cTBS,Tone,Clear,96,4,1,0.44278799998574,1
3840,104,Larynx,Left cTBS,Tone,Clear,97,5,1,0.42032899998594103,1
3841,104,Larynx,Left cTBS,Tone,Clear,98,3,1,0.39151520002633294,1
3842,104,Larynx,Left cTBS,Tone,Clear,99,2,0,0.727953199995682,1
3843,104,Larynx,Left cTBS,Tone,Clear,100,3,1,0.725369399995543,1
3844,104,Larynx,Left cTBS,Tone,Clear,101,4,1,0.466053599957377,1
3845,104,Larynx,Left cTBS,Tone,Clear,102,1,0,0.5379139999859041,1
3846,104,Larynx,Left cTBS,Tone,Clear,103,1,0,0.593400199897587,1
3847,104,Larynx,Left cTBS,Tone,Clear,104,2,0,0.69756509992294,1
3848,104,Larynx,Left cTBS,Tone,Clear,105,2,0,0.7889444000320509,1
3849,104,Larynx,Left cTBS,Tone,Clear,106,5,1,0.595960299950093,1
3850,104,Larynx,Left cTBS,Tone,Clear,107,4,1,0.42004150000866497,1
3851,104,Larynx,Left cTBS,Tone,Clear,108,2,0,0.526016800082289,1
3852,104,Larynx,Left cTBS,Tone,Clear,109,4,1,0.398152699926868,1
3853,104,Larynx,Left cTBS,Tone,Clear,110,2,0,0.585559000028297,1
3854,104,Larynx,Left cTBS,Tone,Clear,111,3,1,0.5096696999389679,1
3855,104,Larynx,Left cTBS,Tone,Clear,112,1,0,0.551108299987391,1
3856,104,Larynx,Left cTBS,Tone,Clear,113,1,1,0.374223399907351,1
3857,104,Larynx,Left cTBS,Tone,Clear,114,3,1,0.63055370002985,1
3858,104,Larynx,Left cTBS,Tone,Clear,115,4,1,0.476704499917105,1
3859,104,Larynx,Left cTBS,Tone,Clear,116,2,0,0.6054103999631479,1
3860,104,Larynx,Left cTBS,Tone,Clear,117,5,1,0.35221669997554295,1
3861,104,Larynx,Left cTBS,Tone,Clear,118,3,1,0.7035887000383809,1
3862,104,Larynx,Left cTBS,Tone,Clear,119,3,0,0.6189106000820171,1
3863,104,Larynx,Left cTBS,Tone,Clear,120,2,0,0.500695899943821,1
3864,104,Larynx,Left cTBS,Tone,Clear,121,1,0,0.475566699984483,1
3865,104,Larynx,Left cTBS,Tone,Clear,122,3,1,0.510944099980406,1
3866,104,Larynx,Left cTBS,Tone,Clear,123,3,1,0.723409999976866,1
3867,104,Larynx,Left cTBS,Tone,Clear,124,2,1,0.48186349996831296,1
3868,104,Larynx,Left cTBS,Tone,Clear,125,1,0,0.561449200031348,1
3869,104,Larynx,Left cTBS,Tone,Clear,126,4,1,0.5732767999870699,1
3870,104,Larynx,Left cTBS,Tone,Clear,127,4,1,0.443403600016609,1
3871,104,Larynx,Left cTBS,Tone,Clear,128,5,1,0.51946370000951,1
3872,104,Larynx,Left cTBS,Tone,Clear,129,5,1,0.471701000002213,1
3873,104,Larynx,Left cTBS,Tone,Clear,130,5,1,0.41258859995286895,1
3874,104,Larynx,Left cTBS,Tone,Clear,131,3,1,0.41177140001673296,1
3875,104,Larynx,Left cTBS,Tone,Clear,132,1,0,0.43080779991578294,1
3876,104,Larynx,Left cTBS,Tone,Clear,133,1,0,0.5012142000487071,1
3877,104,Larynx,Left cTBS,Tone,Clear,134,2,0,0.5964645000640301,1
3878,104,Larynx,Left cTBS,Tone,Clear,135,2,0,0.8123829000396651,1
3879,104,Larynx,Left cTBS,Tone,Clear,136,2,1,0.698484100052156,1
3880,104,Larynx,Left cTBS,Tone,Clear,137,5,1,0.43473609990906,1
3881,104,Larynx,Left cTBS,Tone,Clear,138,5,1,0.36444999999366706,1
3882,104,Larynx,Left cTBS,Tone,Clear,139,4,1,0.40747739991638793,1
3883,104,Larynx,Left cTBS,Tone,Clear,140,4,1,0.499012200045399,1
3884,104,Larynx,Left cTBS,Tone,Clear,141,2,1,0.44513609993737197,1
3885,104,Larynx,Left cTBS,Tone,Clear,142,2,0,0.49855550006031996,1
3886,104,Larynx,Left cTBS,Tone,Clear,143,4,0,0.448942699935287,1
3887,104,Larynx,Left cTBS,Tone,Clear,144,5,1,0.523392200004309,1
3888,104,Larynx,Left cTBS,Tone,Clear,145,3,1,0.43819960008841,1
3889,104,Larynx,Left cTBS,Tone,Clear,146,3,1,0.497929599951021,1
3890,104,Larynx,Left cTBS,Tone,Clear,147,3,1,0.4497049000347029,1
3891,104,Larynx,Left cTBS,Tone,Clear,148,3,1,0.46306109998840794,1
3892,104,Larynx,Left cTBS,Tone,Clear,149,3,1,0.380372800049372,1
3893,104,Larynx,Left cTBS,Tone,Clear,150,4,1,0.373721699928865,1
3894,104,Larynx,Left cTBS,Tone,Clear,151,4,1,0.41780469997320296,1
3895,104,Larynx,Left cTBS,Tone,Clear,152,4,1,0.45995749998837704,1
3896,104,Larynx,Left cTBS,Tone,Clear,153,1,1,0.4040573999518529,1
3897,104,Larynx,Left cTBS,Tone,Clear,154,3,1,0.5105177999939771,1
3898,104,Larynx,Left cTBS,Tone,Clear,155,1,0,0.53942389995791,1
3899,104,Larynx,Left cTBS,Tone,Clear,156,2,1,0.358118600095622,1
5616,104,Larynx,Sham,Tone,Clear,1,3,0,0.7461044000228871,1
5617,104,Larynx,Sham,Tone,Clear,2,3,0,0.6262017999542879,1
5618,104,Larynx,Sham,Tone,Clear,3,5,1,0.651367199956439,1
5619,104,Larynx,Sham,Tone,Clear,4,1,0,0.547613399976399,1
5620,104,Larynx,Sham,Tone,Clear,5,2,0,0.59058310004184,1
5621,104,Larynx,Sham,Tone,Clear,6,3,1,0.5602333999704571,1
5622,104,Larynx,Sham,Tone,Clear,7,2,0,0.789718999993056,1
5623,104,Larynx,Sham,Tone,Clear,8,2,0,0.6330386999761689,1
5624,104,Larynx,Sham,Tone,Clear,9,5,1,0.49529960000654705,1
5625,104,Larynx,Sham,Tone,Clear,10,4,1,0.536458999966271,1
5626,104,Larynx,Sham,Tone,Clear,11,5,1,0.4541460999753329,1
5627,104,Larynx,Sham,Tone,Clear,12,1,0,0.559067199996207,1
5628,104,Larynx,Sham,Tone,Clear,13,1,0,0.6148508000187579,1
5629,104,Larynx,Sham,Tone,Clear,14,4,1,0.537425999995321,1
5630,104,Larynx,Sham,Tone,Clear,15,5,1,0.47943659999873495,1
5631,104,Larynx,Sham,Tone,Clear,16,2,0,0.575246400025208,1
5632,104,Larynx,Sham,Tone,Clear,17,4,1,0.6398255999665711,1
5633,104,Larynx,Sham,Tone,Clear,18,4,1,0.5631702999817211,1
5634,104,Larynx,Sham,Tone,Clear,19,3,0,0.558484300039709,1
5635,104,Larynx,Sham,Tone,Clear,20,3,1,0.530058900010772,1
5636,104,Larynx,Sham,Tone,Clear,21,2,0,0.571846699982416,1
5637,104,Larynx,Sham,Tone,Clear,22,1,0,0.592346800025553,1
5638,104,Larynx,Sham,Tone,Clear,23,4,1,0.47514009999577,1
5639,104,Larynx,Sham,Tone,Clear,24,3,1,0.7200135000166479,1
5640,104,Larynx,Sham,Tone,Clear,25,3,1,0.5552484000218101,1
5641,104,Larynx,Sham,Tone,Clear,26,3,1,0.4832515000016429,1
5642,104,Larynx,Sham,Tone,Clear,27,1,0,0.475936600007117,1
5643,104,Larynx,Sham,Tone,Clear,28,5,1,0.544058799976483,1
5644,104,Larynx,Sham,Tone,Clear,29,2,0,0.5618730999995021,1
5645,104,Larynx,Sham,Tone,Clear,30,4,1,0.44343430001754297,1
5646,104,Larynx,Sham,Tone,Clear,31,2,0,0.6429700999869971,1
5647,104,Larynx,Sham,Tone,Clear,32,3,1,0.484759399958421,1
5648,104,Larynx,Sham,Tone,Clear,33,3,1,0.584764699975494,1
5649,104,Larynx,Sham,Tone,Clear,34,2,0,0.6561645999900071,1
5650,104,Larynx,Sham,Tone,Clear,35,4,1,0.62493709998671,1
5651,104,Larynx,Sham,Tone,Clear,36,3,0,0.657256399979815,1
5652,104,Larynx,Sham,Tone,Clear,37,5,1,1.01787159999367,1
5653,104,Larynx,Sham,Tone,Clear,38,1,0,0.556470100011211,1
5654,104,Larynx,Sham,Tone,Clear,39,4,1,0.548961499996949,1
5655,104,Larynx,Sham,Tone,Clear,40,5,1,0.548447699984536,1
5656,104,Larynx,Sham,Tone,Clear,41,3,1,0.78801190003287,1
5657,104,Larynx,Sham,Tone,Clear,42,3,1,0.973154200008139,1
5658,104,Larynx,Sham,Tone,Clear,43,4,1,0.588603200041689,1
5659,104,Larynx,Sham,Tone,Clear,44,3,0,0.541800600010902,1
5660,104,Larynx,Sham,Tone,Clear,45,4,1,0.6797749999677759,1
5661,104,Larynx,Sham,Tone,Clear,46,1,0,0.514984599954914,1
5662,104,Larynx,Sham,Tone,Clear,47,3,1,0.583982200012542,1
5663,104,Larynx,Sham,Tone,Clear,48,2,0,0.625317500031088,1
5664,104,Larynx,Sham,Tone,Clear,49,1,0,0.5962136000161989,1
5665,104,Larynx,Sham,Tone,Clear,50,4,1,0.45473489997675604,1
5666,104,Larynx,Sham,Tone,Clear,51,3,1,0.479067100037355,1
5667,104,Larynx,Sham,Tone,Clear,52,3,1,0.7344797999830921,1
5668,104,Larynx,Sham,Tone,Clear,53,1,0,0.570301199972164,1
5669,104,Larynx,Sham,Tone,Clear,54,5,1,0.49656229995889595,1
5670,104,Larynx,Sham,Tone,Clear,55,2,0,0.688634899968747,1
5671,104,Larynx,Sham,Tone,Clear,56,1,1,0.5614055999903941,1
5672,104,Larynx,Sham,Tone,Clear,57,4,1,0.510980999970343,1
5673,104,Larynx,Sham,Tone,Clear,58,4,1,0.465712099976372,1
5674,104,Larynx,Sham,Tone,Clear,59,2,0,0.5395833000075071,1
5675,104,Larynx,Sham,Tone,Clear,60,2,1,0.511191600002348,1
5676,104,Larynx,Sham,Tone,Clear,61,4,1,0.515669199987315,1
5677,104,Larynx,Sham,Tone,Clear,62,3,0,0.601155399985146,1
5678,104,Larynx,Sham,Tone,Clear,63,2,0,0.812664200027939,1
5679,104,Larynx,Sham,Tone,Clear,64,3,1,0.5839713999885129,1
5680,104,Larynx,Sham,Tone,Clear,65,3,0,0.546862000017427,1
5681,104,Larynx,Sham,Tone,Clear,66,5,0,0.536499099980574,1
5682,104,Larynx,Sham,Tone,Clear,67,2,0,0.719454400008544,1
5683,104,Larynx,Sham,Tone,Clear,68,2,0,0.6457144000451079,1
5684,104,Larynx,Sham,Tone,Clear,69,4,1,0.502312500029802,1
5685,104,Larynx,Sham,Tone,Clear,70,5,1,0.474092499993276,1
5686,104,Larynx,Sham,Tone,Clear,71,1,1,0.447359699988738,1
5687,104,Larynx,Sham,Tone,Clear,72,5,1,0.6298646000213921,1
5688,104,Larynx,Sham,Tone,Clear,73,1,0,0.556415400002152,1
5689,104,Larynx,Sham,Tone,Clear,74,4,1,0.44123510003555605,1
5690,104,Larynx,Sham,Tone,Clear,75,3,0,0.5703913000179449,1
5691,104,Larynx,Sham,Tone,Clear,76,2,0,0.6535777999670239,1
5692,104,Larynx,Sham,Tone,Clear,77,3,1,0.7819288999889978,1
5693,104,Larynx,Sham,Tone,Clear,78,5,1,0.46963970002252603,1
5694,104,Larynx,Sham,Tone,Clear,79,4,0,0.601298499968834,1
5695,104,Larynx,Sham,Tone,Clear,80,5,1,0.547034999995958,1
5696,104,Larynx,Sham,Tone,Clear,81,2,0,0.6730512999929489,1
5697,104,Larynx,Sham,Tone,Clear,82,3,1,0.667646199988667,1
5698,104,Larynx,Sham,Tone,Clear,83,4,1,0.520667300035711,1
5699,104,Larynx,Sham,Tone,Clear,84,4,1,0.5878937999950721,1
5700,104,Larynx,Sham,Tone,Clear,85,2,1,0.7150673000141979,1
5701,104,Larynx,Sham,Tone,Clear,86,2,0,0.8230509000131859,1
5702,104,Larynx,Sham,Tone,Clear,87,3,1,0.501437800005078,1
5703,104,Larynx,Sham,Tone,Clear,88,5,1,0.6174371000379321,1
5704,104,Larynx,Sham,Tone,Clear,89,1,0,0.55154290003702,1
5705,104,Larynx,Sham,Tone,Clear,90,4,1,0.49813409999478603,1
5706,104,Larynx,Sham,Tone,Clear,91,3,0,0.492316199990455,1
5707,104,Larynx,Sham,Tone,Clear,92,1,0,0.666952600004151,1
5708,104,Larynx,Sham,Tone,Clear,93,3,1,0.559924400004093,1
5709,104,Larynx,Sham,Tone,Clear,94,3,1,0.483912600029726,1
5710,104,Larynx,Sham,Tone,Clear,95,1,0,0.562771099968813,1
5711,104,Larynx,Sham,Tone,Clear,96,2,0,0.5801358000026079,1
5712,104,Larynx,Sham,Tone,Clear,97,5,1,0.47189639997668603,1
5713,104,Larynx,Sham,Tone,Clear,98,5,1,0.46303840004839003,1
5714,104,Larynx,Sham,Tone,Clear,99,4,1,0.694006100005936,1
5715,104,Larynx,Sham,Tone,Clear,100,3,1,0.46119729999918496,1
5716,104,Larynx,Sham,Tone,Clear,101,3,1,0.6248599999817089,1
5717,104,Larynx,Sham,Tone,Clear,102,5,1,0.5578153000096789,1
5718,104,Larynx,Sham,Tone,Clear,103,4,1,0.538183700002264,1
5719,104,Larynx,Sham,Tone,Clear,104,3,1,0.43988760001957394,1
5720,104,Larynx,Sham,Tone,Clear,105,2,0,0.649454200000037,1
5721,104,Larynx,Sham,Tone,Clear,106,4,1,0.5526833999902011,1
5722,104,Larynx,Sham,Tone,Clear,107,1,0,0.6245045000105159,1
5723,104,Larynx,Sham,Tone,Clear,108,1,0,0.576954899996053,1
5724,104,Larynx,Sham,Tone,Clear,109,3,0,0.5719328999985009,1
5725,104,Larynx,Sham,Tone,Clear,110,2,1,0.5266997000435371,1
5726,104,Larynx,Sham,Tone,Clear,111,1,0,0.7394724000478159,1
5727,104,Larynx,Sham,Tone,Clear,112,5,1,0.417501399992034,1
5728,104,Larynx,Sham,Tone,Clear,113,2,1,0.576731599983759,1
5729,104,Larynx,Sham,Tone,Clear,114,4,1,0.658923399983905,1
5730,104,Larynx,Sham,Tone,Clear,115,3,1,0.534329499991145,1
5731,104,Larynx,Sham,Tone,Clear,116,3,0,0.623810299963225,1
5732,104,Larynx,Sham,Tone,Clear,117,2,0,0.713078000000678,1
5733,104,Larynx,Sham,Tone,Clear,118,1,0,0.702737600018736,1
5734,104,Larynx,Sham,Tone,Clear,119,4,1,0.45378499996149896,1
5735,104,Larynx,Sham,Tone,Clear,120,4,1,0.532743200019468,1
5736,104,Larynx,Sham,Tone,Clear,121,2,0,0.601168600027449,1
5737,104,Larynx,Sham,Tone,Clear,122,1,0,0.594152599980589,1
5738,104,Larynx,Sham,Tone,Clear,123,2,1,0.561358399980236,1
5739,104,Larynx,Sham,Tone,Clear,124,5,1,0.541015599970706,1
5740,104,Larynx,Sham,Tone,Clear,125,4,1,0.525034899997991,1
5741,104,Larynx,Sham,Tone,Clear,126,2,1,0.6709714999888089,1
5742,104,Larynx,Sham,Tone,Clear,127,3,1,0.6928526999545279,1
5743,104,Larynx,Sham,Tone,Clear,128,4,0,0.5935836000135171,1
5744,104,Larynx,Sham,Tone,Clear,129,3,0,0.6591991999885071,1
5745,104,Larynx,Sham,Tone,Clear,130,1,0,0.7273569999961179,1
5746,104,Larynx,Sham,Tone,Clear,131,2,1,0.512863499985542,1
5747,104,Larynx,Sham,Tone,Clear,132,1,0,0.8545184999820781,1
5748,104,Larynx,Sham,Tone,Clear,133,3,0,0.7514537000097329,1
5749,104,Larynx,Sham,Tone,Clear,134,4,1,0.546822400006931,1
5750,104,Larynx,Sham,Tone,Clear,135,3,1,0.7488018000149169,1
5751,104,Larynx,Sham,Tone,Clear,136,3,1,0.593604499998037,1
5752,104,Larynx,Sham,Tone,Clear,137,5,1,0.69338880002033,1
5753,104,Larynx,Sham,Tone,Clear,138,2,0,0.7695414000190791,1
5754,104,Larynx,Sham,Tone,Clear,139,3,1,0.7201938999933191,1
5755,104,Larynx,Sham,Tone,Clear,140,2,1,0.543994400009979,1
5756,104,Larynx,Sham,Tone,Clear,141,5,1,0.533274799992796,1
5757,104,Larynx,Sham,Tone,Clear,142,3,0,0.653478499967605,1
5758,104,Larynx,Sham,Tone,Clear,143,5,1,0.555612299998757,1
5759,104,Larynx,Sham,Tone,Clear,144,2,0,0.6847901999717579,1
5760,104,Larynx,Sham,Tone,Clear,145,3,1,0.768855899979826,1
5761,104,Larynx,Sham,Tone,Clear,146,1,0,0.614138000004459,1
5762,104,Larynx,Sham,Tone,Clear,147,3,1,0.585270699986722,1
5763,104,Larynx,Sham,Tone,Clear,148,4,1,0.503485900000669,1
5764,104,Larynx,Sham,Tone,Clear,149,4,1,0.505519700003788,1
5765,104,Larynx,Sham,Tone,Clear,150,2,0,0.541936099994928,1
5766,104,Larynx,Sham,Tone,Clear,151,5,1,0.5371672000037511,1
5767,104,Larynx,Sham,Tone,Clear,152,3,0,0.546386400004849,1
5768,104,Larynx,Sham,Tone,Clear,153,3,0,0.7437565000145699,1
5769,104,Larynx,Sham,Tone,Clear,154,5,1,0.489477899973281,1
5770,104,Larynx,Sham,Tone,Clear,155,4,1,0.58005539997248,1
5771,104,Larynx,Sham,Tone,Clear,156,1,0,0.619593499985058,1
6864,123,Larynx,Left cTBS,Tone,Clear,1,3,1,1.18426169999293,1
6865,123,Larynx,Left cTBS,Tone,Clear,2,3,1,0.556004699988989,1
6866,123,Larynx,Left cTBS,Tone,Clear,3,5,1,0.49117689998820396,1
6867,123,Larynx,Left cTBS,Tone,Clear,4,1,0,0.5083290000038689,1
6868,123,Larynx,Left cTBS,Tone,Clear,5,2,1,0.488283999991836,1
6869,123,Larynx,Left cTBS,Tone,Clear,6,3,1,0.514452400006121,1
6870,123,Larynx,Left cTBS,Tone,Clear,7,2,1,0.5515840999723879,1
6871,123,Larynx,Left cTBS,Tone,Clear,8,2,1,0.689585399988573,1
6872,123,Larynx,Left cTBS,Tone,Clear,9,5,1,0.486677500011865,1
6873,123,Larynx,Left cTBS,Tone,Clear,10,4,1,0.540727199986577,1
6874,123,Larynx,Left cTBS,Tone,Clear,11,5,1,0.5816306000051551,1
6875,123,Larynx,Left cTBS,Tone,Clear,12,1,0,0.528874699986773,1
6876,123,Larynx,Left cTBS,Tone,Clear,13,1,0,0.471702700015157,1
6877,123,Larynx,Left cTBS,Tone,Clear,14,4,0,1.0668053999834202,1
6878,123,Larynx,Left cTBS,Tone,Clear,15,5,1,0.6703763999976221,1
6879,123,Larynx,Left cTBS,Tone,Clear,16,2,0,0.7198090000019871,1
6880,123,Larynx,Left cTBS,Tone,Clear,17,4,1,0.5760690000024621,1
6881,123,Larynx,Left cTBS,Tone,Clear,18,4,1,0.41158280000672703,1
6882,123,Larynx,Left cTBS,Tone,Clear,19,3,1,0.387740399979521,1
6883,123,Larynx,Left cTBS,Tone,Clear,20,3,1,0.45406049999292003,1
6884,123,Larynx,Left cTBS,Tone,Clear,21,2,0,0.54715070000384,1
6885,123,Larynx,Left cTBS,Tone,Clear,22,1,0,0.615124900010414,1
6886,123,Larynx,Left cTBS,Tone,Clear,23,4,1,0.347127499990165,1
6887,123,Larynx,Left cTBS,Tone,Clear,24,3,1,0.344598600000609,1
6888,123,Larynx,Left cTBS,Tone,Clear,25,3,1,0.41400290001183704,1
6889,123,Larynx,Left cTBS,Tone,Clear,26,3,1,0.468770700012101,1
6890,123,Larynx,Left cTBS,Tone,Clear,27,1,0,0.5686139999888841,1
6891,123,Larynx,Left cTBS,Tone,Clear,28,5,1,1.0219895000045698,1
6892,123,Larynx,Left cTBS,Tone,Clear,29,2,0,0.671820299990941,1
6893,123,Larynx,Left cTBS,Tone,Clear,30,4,1,0.46148890000768,1
6894,123,Larynx,Left cTBS,Tone,Clear,31,2,0,0.579382600000827,1
6895,123,Larynx,Left cTBS,Tone,Clear,32,3,1,0.47828000001027204,1
6896,123,Larynx,Left cTBS,Tone,Clear,33,3,1,0.627112299989676,1
6897,123,Larynx,Left cTBS,Tone,Clear,34,2,0,0.859818400000222,1
6898,123,Larynx,Left cTBS,Tone,Clear,35,4,1,0.6868930000055121,1
6899,123,Larynx,Left cTBS,Tone,Clear,36,3,1,0.6997464000014589,1
6900,123,Larynx,Left cTBS,Tone,Clear,37,5,1,0.720864700007951,1
6901,123,Larynx,Left cTBS,Tone,Clear,38,1,0,0.52662409999175,1
6902,123,Larynx,Left cTBS,Tone,Clear,39,4,1,0.35747030001948604,1
6903,123,Larynx,Left cTBS,Tone,Clear,40,5,1,0.381143600010546,1
6904,123,Larynx,Left cTBS,Tone,Clear,41,3,1,0.36520170001313107,1
6905,123,Larynx,Left cTBS,Tone,Clear,42,3,1,0.4564975000103,1
6906,123,Larynx,Left cTBS,Tone,Clear,43,4,1,0.39310759998625106,1
6907,123,Larynx,Left cTBS,Tone,Clear,44,3,1,0.41621080000186295,1
6908,123,Larynx,Left cTBS,Tone,Clear,45,4,1,0.398974000010639,1
6909,123,Larynx,Left cTBS,Tone,Clear,46,1,0,0.47671220000484005,1
6910,123,Larynx,Left cTBS,Tone,Clear,47,3,1,0.580130299989833,1
6911,123,Larynx,Left cTBS,Tone,Clear,48,2,0,0.684279400011292,1
6912,123,Larynx,Left cTBS,Tone,Clear,49,1,0,0.816152000013972,1
6913,123,Larynx,Left cTBS,Tone,Clear,50,4,1,0.670693400024902,1
6914,123,Larynx,Left cTBS,Tone,Clear,51,3,1,0.697853300021961,1
6915,123,Larynx,Left cTBS,Tone,Clear,52,3,1,0.634161199996015,1
6916,123,Larynx,Left cTBS,Tone,Clear,53,1,0,0.714075900003081,1
6917,123,Larynx,Left cTBS,Tone,Clear,54,5,1,0.6732396000006701,1
6918,123,Larynx,Left cTBS,Tone,Clear,55,2,0,0.6823533999850041,1
6919,123,Larynx,Left cTBS,Tone,Clear,56,1,0,1.29314100000192,1
6920,123,Larynx,Left cTBS,Tone,Clear,57,4,1,0.512766500003636,1
6921,123,Larynx,Left cTBS,Tone,Clear,58,4,1,0.413450100022601,1
6922,123,Larynx,Left cTBS,Tone,Clear,59,2,0,0.5868064999813211,1
6923,123,Larynx,Left cTBS,Tone,Clear,60,2,0,0.69416139999521,1
6924,123,Larynx,Left cTBS,Tone,Clear,61,4,1,0.417593299993314,1
6925,123,Larynx,Left cTBS,Tone,Clear,62,3,0,0.633365699992282,1
6926,123,Larynx,Left cTBS,Tone,Clear,63,2,0,1.096858600009,1
6927,123,Larynx,Left cTBS,Tone,Clear,64,3,1,0.465506899985485,1
6928,123,Larynx,Left cTBS,Tone,Clear,65,3,1,0.355601799994474,1
6929,123,Larynx,Left cTBS,Tone,Clear,66,5,1,0.36210070000379296,1
6930,123,Larynx,Left cTBS,Tone,Clear,67,2,0,0.6294659999839499,1
6931,123,Larynx,Left cTBS,Tone,Clear,68,2,0,0.699075300013646,1
6932,123,Larynx,Left cTBS,Tone,Clear,69,4,0,0.619808999996167,1
6933,123,Larynx,Left cTBS,Tone,Clear,70,5,1,0.440930099983234,1
6934,123,Larynx,Left cTBS,Tone,Clear,71,1,0,0.621185199997853,1
6935,123,Larynx,Left cTBS,Tone,Clear,72,5,1,0.473238300008234,1
6936,123,Larynx,Left cTBS,Tone,Clear,73,1,1,0.4004475999972779,1
6937,123,Larynx,Left cTBS,Tone,Clear,74,4,1,0.52346649998799,1
6938,123,Larynx,Left cTBS,Tone,Clear,75,3,1,0.579422400012845,1
6939,123,Larynx,Left cTBS,Tone,Clear,76,2,0,1.01728260001983,1
6940,123,Larynx,Left cTBS,Tone,Clear,77,3,1,0.7142906000080981,1
6941,123,Larynx,Left cTBS,Tone,Clear,78,5,1,0.654564399999799,1
6942,123,Larynx,Left cTBS,Tone,Clear,79,4,1,0.6805359999998472,1
6943,123,Larynx,Left cTBS,Tone,Clear,80,5,1,0.6465228000015489,1
6944,123,Larynx,Left cTBS,Tone,Clear,81,2,0,0.6503108000033541,1
6945,123,Larynx,Left cTBS,Tone,Clear,82,3,1,0.9983500000089408,1
6946,123,Larynx,Left cTBS,Tone,Clear,83,4,1,0.437626099999761,1
6947,123,Larynx,Left cTBS,Tone,Clear,84,4,1,0.34447410001303097,1
6948,123,Larynx,Left cTBS,Tone,Clear,85,2,0,0.578498599992599,1
6949,123,Larynx,Left cTBS,Tone,Clear,86,2,0,0.557447600003798,1
6950,123,Larynx,Left cTBS,Tone,Clear,87,3,1,0.555118699994637,1
6951,123,Larynx,Left cTBS,Tone,Clear,88,5,1,0.355838499992387,1
6952,123,Larynx,Left cTBS,Tone,Clear,89,1,0,0.6036569999996569,1
6953,123,Larynx,Left cTBS,Tone,Clear,90,4,1,0.47397569997701794,1
6954,123,Larynx,Left cTBS,Tone,Clear,91,3,1,0.356218900007661,1
6955,123,Larynx,Left cTBS,Tone,Clear,92,1,0,0.683070899976883,1
6956,123,Larynx,Left cTBS,Tone,Clear,93,3,1,0.64115270000184,1
6957,123,Larynx,Left cTBS,Tone,Clear,94,3,1,0.41914630000246705,1
6958,123,Larynx,Left cTBS,Tone,Clear,95,1,0,0.447618700010935,1
6959,123,Larynx,Left cTBS,Tone,Clear,96,2,1,0.32303640001919104,1
6960,123,Larynx,Left cTBS,Tone,Clear,97,5,1,1.1520133000158201,1
6961,123,Larynx,Left cTBS,Tone,Clear,98,5,1,0.531425399996806,1
6962,123,Larynx,Left cTBS,Tone,Clear,99,4,1,0.48772999999346206,1
6963,123,Larynx,Left cTBS,Tone,Clear,100,3,1,0.41613840000354707,1
6964,123,Larynx,Left cTBS,Tone,Clear,101,3,1,0.728373899997678,1
6965,123,Larynx,Left cTBS,Tone,Clear,102,5,1,0.683950599981472,1
6966,123,Larynx,Left cTBS,Tone,Clear,103,4,1,0.44990109998616395,1
6967,123,Larynx,Left cTBS,Tone,Clear,104,3,0,0.59921410001698,1
6968,123,Larynx,Left cTBS,Tone,Clear,105,2,0,0.5046996999881229,1
6969,123,Larynx,Left cTBS,Tone,Clear,106,4,1,0.44450149999465793,1
6970,123,Larynx,Left cTBS,Tone,Clear,107,1,1,0.326657199999318,1
6971,123,Larynx,Left cTBS,Tone,Clear,108,1,0,0.764015299995663,1
6972,123,Larynx,Left cTBS,Tone,Clear,109,3,1,0.622802199999569,1
6973,123,Larynx,Left cTBS,Tone,Clear,110,2,1,0.396215200016741,1
6974,123,Larynx,Left cTBS,Tone,Clear,111,1,0,0.437772600009339,1
6975,123,Larynx,Left cTBS,Tone,Clear,112,5,1,0.304564099991694,1
6976,123,Larynx,Left cTBS,Tone,Clear,113,2,1,0.299130300001707,1
6977,123,Larynx,Left cTBS,Tone,Clear,114,4,1,0.745016100001521,1
6978,123,Larynx,Left cTBS,Tone,Clear,115,3,1,0.5754415999981569,1
6979,123,Larynx,Left cTBS,Tone,Clear,116,3,1,0.45342900001560293,1
6980,123,Larynx,Left cTBS,Tone,Clear,117,2,0,0.47028499998850704,1
6981,123,Larynx,Left cTBS,Tone,Clear,118,1,1,0.6558573000074829,1
6982,123,Larynx,Left cTBS,Tone,Clear,119,4,1,0.5338267999759411,1
6983,123,Larynx,Left cTBS,Tone,Clear,120,4,1,0.543380499992054,1
6984,123,Larynx,Left cTBS,Tone,Clear,121,2,0,0.6274554999836249,1
6985,123,Larynx,Left cTBS,Tone,Clear,122,1,0,0.640605799999321,1
6986,123,Larynx,Left cTBS,Tone,Clear,123,2,0,0.7398446000006519,1
6987,123,Larynx,Left cTBS,Tone,Clear,124,5,1,0.463703199988231,1
6988,123,Larynx,Left cTBS,Tone,Clear,125,4,1,0.4203737999778239,1
6989,123,Larynx,Left cTBS,Tone,Clear,126,2,0,0.7147126000199929,1
6990,123,Larynx,Left cTBS,Tone,Clear,127,3,1,0.677635100000771,1
6991,123,Larynx,Left cTBS,Tone,Clear,128,4,1,0.396979700017255,1
6992,123,Larynx,Left cTBS,Tone,Clear,129,3,1,0.362539300025674,1
6993,123,Larynx,Left cTBS,Tone,Clear,130,1,0,0.460852299991529,1
6994,123,Larynx,Left cTBS,Tone,Clear,131,2,1,0.29780800000298807,1
6995,123,Larynx,Left cTBS,Tone,Clear,132,1,0,0.7869021999940741,1
6996,123,Larynx,Left cTBS,Tone,Clear,133,3,1,0.574920499988366,1
6997,123,Larynx,Left cTBS,Tone,Clear,134,4,1,0.333880700025475,1
6998,123,Larynx,Left cTBS,Tone,Clear,135,3,1,0.337006399990059,1
6999,123,Larynx,Left cTBS,Tone,Clear,136,3,1,0.34601010000915305,1
7000,123,Larynx,Left cTBS,Tone,Clear,137,5,1,0.521602900000289,1
7001,123,Larynx,Left cTBS,Tone,Clear,138,2,0,0.542329899995821,1
7002,123,Larynx,Left cTBS,Tone,Clear,139,3,1,1.2490262999781399,1
7003,123,Larynx,Left cTBS,Tone,Clear,140,2,0,0.681939700007206,1
7004,123,Larynx,Left cTBS,Tone,Clear,141,5,1,0.608006299997214,1
7005,123,Larynx,Left cTBS,Tone,Clear,142,3,1,0.555861299973913,1
7006,123,Larynx,Left cTBS,Tone,Clear,143,5,1,0.497449599992251,1
7007,123,Larynx,Left cTBS,Tone,Clear,144,2,0,0.478268399980152,1
7008,123,Larynx,Left cTBS,Tone,Clear,145,3,1,0.684138800017536,1
7009,123,Larynx,Left cTBS,Tone,Clear,146,1,0,0.682944800006226,1
7010,123,Larynx,Left cTBS,Tone,Clear,147,3,1,0.5510493000037969,1
7011,123,Larynx,Left cTBS,Tone,Clear,148,4,1,0.468755999987479,1
7012,123,Larynx,Left cTBS,Tone,Clear,149,4,1,0.551270199997816,1
7013,123,Larynx,Left cTBS,Tone,Clear,150,2,0,0.619526299997233,1
7014,123,Larynx,Left cTBS,Tone,Clear,151,5,1,0.450606600003084,1
7015,123,Larynx,Left cTBS,Tone,Clear,152,3,1,0.344067099998938,1
7016,123,Larynx,Left cTBS,Tone,Clear,153,3,1,0.39873499999521295,1
7017,123,Larynx,Left cTBS,Tone,Clear,154,5,1,0.34017089998815203,1
7018,123,Larynx,Left cTBS,Tone,Clear,155,4,1,0.339724099991145,1
7019,123,Larynx,Left cTBS,Tone,Clear,156,1,0,0.581620099983411,1
8736,123,Larynx,Sham,Tone,Clear,1,4,1,0.862170199980028,1
8737,123,Larynx,Sham,Tone,Clear,2,2,0,0.5595041000051421,1
8738,123,Larynx,Sham,Tone,Clear,3,2,0,0.6769343999912961,1
8739,123,Larynx,Sham,Tone,Clear,4,3,0,0.664124400005676,1
8740,123,Larynx,Sham,Tone,Clear,5,3,1,0.506878000102006,1
8741,123,Larynx,Sham,Tone,Clear,6,3,1,0.363215000019409,1
8742,123,Larynx,Sham,Tone,Clear,7,4,1,0.413163699908182,1
8743,123,Larynx,Sham,Tone,Clear,8,1,0,0.561461800010875,1
8744,123,Larynx,Sham,Tone,Clear,9,1,0,0.5766646000556651,1
8745,123,Larynx,Sham,Tone,Clear,10,2,0,0.784153799992055,1
8746,123,Larynx,Sham,Tone,Clear,11,2,1,0.44519879994913897,1
8747,123,Larynx,Sham,Tone,Clear,12,4,1,0.467710400000215,1
8748,123,Larynx,Sham,Tone,Clear,13,5,1,0.449038999970071,1
8749,123,Larynx,Sham,Tone,Clear,14,5,1,0.573221900034696,1
8750,123,Larynx,Sham,Tone,Clear,15,3,1,0.791846999898553,1
8751,123,Larynx,Sham,Tone,Clear,16,2,0,0.47912700008601,1
8752,123,Larynx,Sham,Tone,Clear,17,4,1,0.463297800044529,1
8753,123,Larynx,Sham,Tone,Clear,18,1,0,0.582482099998742,1
8754,123,Larynx,Sham,Tone,Clear,19,1,0,0.5991487000137571,1
8755,123,Larynx,Sham,Tone,Clear,20,3,1,0.464048399939202,1
8756,123,Larynx,Sham,Tone,Clear,21,3,1,0.556530900066718,1
8757,123,Larynx,Sham,Tone,Clear,22,2,0,0.72516260005068,1
8758,123,Larynx,Sham,Tone,Clear,23,5,1,0.467286000028253,1
8759,123,Larynx,Sham,Tone,Clear,24,4,1,0.6648837999673559,1
8760,123,Larynx,Sham,Tone,Clear,25,5,1,0.501729400013573,1
8761,123,Larynx,Sham,Tone,Clear,26,3,1,0.8293680000351741,1
8762,123,Larynx,Sham,Tone,Clear,27,4,1,0.526583700091578,1
8763,123,Larynx,Sham,Tone,Clear,28,3,1,0.657946899998933,1
8764,123,Larynx,Sham,Tone,Clear,29,1,0,0.618689900031313,1
8765,123,Larynx,Sham,Tone,Clear,30,5,1,0.646685599931516,1
8766,123,Larynx,Sham,Tone,Clear,31,1,0,0.6595277000451459,1
8767,123,Larynx,Sham,Tone,Clear,32,3,1,0.602194499922916,1
8768,123,Larynx,Sham,Tone,Clear,33,5,1,0.43901720002759204,1
8769,123,Larynx,Sham,Tone,Clear,34,3,1,0.443887400091626,1
8770,123,Larynx,Sham,Tone,Clear,35,3,1,0.5928860999410971,1
8771,123,Larynx,Sham,Tone,Clear,36,2,1,0.412555699935183,1
8772,123,Larynx,Sham,Tone,Clear,37,4,1,0.450949700083584,1
8773,123,Larynx,Sham,Tone,Clear,38,2,1,0.6281628999859089,1
8774,123,Larynx,Sham,Tone,Clear,39,4,1,0.460737499990501,1
8775,123,Larynx,Sham,Tone,Clear,40,2,0,0.5710067999316379,1
8776,123,Larynx,Sham,Tone,Clear,41,3,1,0.52716080006212,1
8777,123,Larynx,Sham,Tone,Clear,42,5,1,0.38958369998727,1
8778,123,Larynx,Sham,Tone,Clear,43,4,1,0.38512990006711295,1
8779,123,Larynx,Sham,Tone,Clear,44,1,0,0.5413294000318271,1
8780,123,Larynx,Sham,Tone,Clear,45,2,1,0.588907399913296,1
8781,123,Larynx,Sham,Tone,Clear,46,5,1,0.44411899999249704,1
8782,123,Larynx,Sham,Tone,Clear,47,1,0,0.672099100076593,1
8783,123,Larynx,Sham,Tone,Clear,48,3,1,0.656817900016904,1
8784,123,Larynx,Sham,Tone,Clear,49,1,0,0.575084600015543,1
8785,123,Larynx,Sham,Tone,Clear,50,3,1,0.47230640007183,1
8786,123,Larynx,Sham,Tone,Clear,51,1,1,0.45701380004175,1
8787,123,Larynx,Sham,Tone,Clear,52,4,1,0.5466517000459129,1
8788,123,Larynx,Sham,Tone,Clear,53,5,1,0.514330800040625,1
8789,123,Larynx,Sham,Tone,Clear,54,4,1,0.548379100044258,1
8790,123,Larynx,Sham,Tone,Clear,55,4,1,0.43523139995522797,1
8791,123,Larynx,Sham,Tone,Clear,56,5,1,0.40302720002364395,1
8792,123,Larynx,Sham,Tone,Clear,57,2,0,0.618700899998657,1
8793,123,Larynx,Sham,Tone,Clear,58,2,0,0.677249899948947,1
8794,123,Larynx,Sham,Tone,Clear,59,5,1,0.48582930001430197,1
8795,123,Larynx,Sham,Tone,Clear,60,3,1,0.655395200010389,1
8796,123,Larynx,Sham,Tone,Clear,61,3,0,0.580950199975632,1
8797,123,Larynx,Sham,Tone,Clear,62,4,1,0.5079453999642279,1
8798,123,Larynx,Sham,Tone,Clear,63,2,0,0.576529800076969,1
8799,123,Larynx,Sham,Tone,Clear,64,2,1,0.5656689000315961,1
8800,123,Larynx,Sham,Tone,Clear,65,1,1,0.716017399914563,1
8801,123,Larynx,Sham,Tone,Clear,66,4,1,0.6111564999446271,1
8802,123,Larynx,Sham,Tone,Clear,67,3,1,0.7028245000401511,1
8803,123,Larynx,Sham,Tone,Clear,68,3,1,0.554445500019938,1
8804,123,Larynx,Sham,Tone,Clear,69,3,1,0.8224696000106629,1
8805,123,Larynx,Sham,Tone,Clear,70,4,1,0.543204899993725,1
8806,123,Larynx,Sham,Tone,Clear,71,5,1,0.5011886999709529,1
8807,123,Larynx,Sham,Tone,Clear,72,2,0,0.54206820006948,1
8808,123,Larynx,Sham,Tone,Clear,73,2,0,0.8043484999798242,1
8809,123,Larynx,Sham,Tone,Clear,74,3,1,0.660762500017881,1
8810,123,Larynx,Sham,Tone,Clear,75,3,1,0.938543600030243,1
8811,123,Larynx,Sham,Tone,Clear,76,3,1,0.621757399989292,1
8812,123,Larynx,Sham,Tone,Clear,77,1,0,0.581201500026509,1
8813,123,Larynx,Sham,Tone,Clear,78,4,1,0.491875099949539,1
8814,123,Larynx,Sham,Tone,Clear,79,2,0,0.537234399933368,1
8815,123,Larynx,Sham,Tone,Clear,80,4,1,0.38813889992889,1
8816,123,Larynx,Sham,Tone,Clear,81,2,1,0.41353520005941397,1
8817,123,Larynx,Sham,Tone,Clear,82,3,1,0.44924230000469795,1
8818,123,Larynx,Sham,Tone,Clear,83,2,1,0.394055599928834,1
8819,123,Larynx,Sham,Tone,Clear,84,5,0,0.470660799997859,1
8820,123,Larynx,Sham,Tone,Clear,85,3,1,0.644044199958444,1
8821,123,Larynx,Sham,Tone,Clear,86,5,1,0.43782700004521796,1
8822,123,Larynx,Sham,Tone,Clear,87,4,1,0.37262770009692797,1
8823,123,Larynx,Sham,Tone,Clear,88,4,1,0.411449100007303,1
8824,123,Larynx,Sham,Tone,Clear,89,1,0,0.562814200064167,1
8825,123,Larynx,Sham,Tone,Clear,90,3,1,0.7382935000350699,1
8826,123,Larynx,Sham,Tone,Clear,91,5,1,0.42716479999944607,1
8827,123,Larynx,Sham,Tone,Clear,92,4,1,0.40410869999322996,1
8828,123,Larynx,Sham,Tone,Clear,93,2,0,0.45034620002843395,1
8829,123,Larynx,Sham,Tone,Clear,94,3,1,0.741742699989118,1
8830,123,Larynx,Sham,Tone,Clear,95,2,0,0.6176803000271321,1
8831,123,Larynx,Sham,Tone,Clear,96,5,1,0.39409630000591295,1
8832,123,Larynx,Sham,Tone,Clear,97,3,1,0.36195320007391296,1
8833,123,Larynx,Sham,Tone,Clear,98,3,1,0.34979170002043203,1
8834,123,Larynx,Sham,Tone,Clear,99,2,0,0.576032200013287,1
8835,123,Larynx,Sham,Tone,Clear,100,1,1,0.41832890000659995,1
8836,123,Larynx,Sham,Tone,Clear,101,4,1,0.5010518999770279,1
8837,123,Larynx,Sham,Tone,Clear,102,1,0,0.5791600999655201,1
8838,123,Larynx,Sham,Tone,Clear,103,3,1,0.548051199992187,1
8839,123,Larynx,Sham,Tone,Clear,104,4,1,0.416630799998529,1
8840,123,Larynx,Sham,Tone,Clear,105,4,1,0.570444399956614,1
8841,123,Larynx,Sham,Tone,Clear,106,1,1,0.387721200007945,1
8842,123,Larynx,Sham,Tone,Clear,107,2,0,0.878395000007004,1
8843,123,Larynx,Sham,Tone,Clear,108,3,1,0.477847800008021,1
8844,123,Larynx,Sham,Tone,Clear,109,5,1,1.59177759999875,1
8845,123,Larynx,Sham,Tone,Clear,110,4,1,0.5112540000118321,1
8846,123,Larynx,Sham,Tone,Clear,111,5,1,0.759080599993467,1
8847,123,Larynx,Sham,Tone,Clear,112,3,1,0.677266500075348,1
8848,123,Larynx,Sham,Tone,Clear,113,2,0,0.451649299939163,1
8849,123,Larynx,Sham,Tone,Clear,114,3,1,0.610181599971838,1
8850,123,Larynx,Sham,Tone,Clear,115,3,1,0.411813999991864,1
8851,123,Larynx,Sham,Tone,Clear,116,1,0,0.619627399952151,1
8852,123,Larynx,Sham,Tone,Clear,117,1,0,0.86018930003047,1
8853,123,Larynx,Sham,Tone,Clear,118,5,1,0.38788519997615395,1
8854,123,Larynx,Sham,Tone,Clear,119,4,1,0.506925900001079,1
8855,123,Larynx,Sham,Tone,Clear,120,3,1,0.38386029994580895,1
8856,123,Larynx,Sham,Tone,Clear,121,4,1,0.39067520003300205,1
8857,123,Larynx,Sham,Tone,Clear,122,3,1,0.42365159990731605,1
8858,123,Larynx,Sham,Tone,Clear,123,4,1,0.5450957999564711,1
8859,123,Larynx,Sham,Tone,Clear,124,2,0,0.596500399988145,1
8860,123,Larynx,Sham,Tone,Clear,125,5,1,0.602845499990508,1
8861,123,Larynx,Sham,Tone,Clear,126,1,0,0.570858299965039,1
8862,123,Larynx,Sham,Tone,Clear,127,2,0,0.621310199960135,1
8863,123,Larynx,Sham,Tone,Clear,128,3,1,0.48555109999142604,1
8864,123,Larynx,Sham,Tone,Clear,129,3,1,0.363101799972355,1
8865,123,Larynx,Sham,Tone,Clear,130,4,1,0.352152500068769,1
8866,123,Larynx,Sham,Tone,Clear,131,3,1,0.452323299949057,1
8867,123,Larynx,Sham,Tone,Clear,132,2,1,0.34509709989652,1
8868,123,Larynx,Sham,Tone,Clear,133,4,1,0.62360459996853,1
8869,123,Larynx,Sham,Tone,Clear,134,3,1,0.414889900013804,1
8870,123,Larynx,Sham,Tone,Clear,135,5,1,0.38976960000582,1
8871,123,Larynx,Sham,Tone,Clear,136,3,1,0.364767799968831,1
8872,123,Larynx,Sham,Tone,Clear,137,2,1,0.742596400086768,1
8873,123,Larynx,Sham,Tone,Clear,138,3,1,0.505346999969333,1
8874,123,Larynx,Sham,Tone,Clear,139,1,0,0.5419694999000061,1
8875,123,Larynx,Sham,Tone,Clear,140,2,0,0.8847054999787359,1
8876,123,Larynx,Sham,Tone,Clear,141,1,1,0.39015729993116105,1
8877,123,Larynx,Sham,Tone,Clear,142,5,1,0.451116999960504,1
8878,123,Larynx,Sham,Tone,Clear,143,1,0,0.666407500044443,1
8879,123,Larynx,Sham,Tone,Clear,144,4,1,0.48867160000372706,1
8880,123,Larynx,Sham,Tone,Clear,145,1,1,0.39384939998853996,1
8881,123,Larynx,Sham,Tone,Clear,146,4,1,0.618862500065006,1
8882,123,Larynx,Sham,Tone,Clear,147,3,1,0.49511789996177,1
8883,123,Larynx,Sham,Tone,Clear,148,2,1,0.399345900048502,1
8884,123,Larynx,Sham,Tone,Clear,149,2,0,0.98884869995527,1
8885,123,Larynx,Sham,Tone,Clear,150,5,1,0.38784760003909496,1
8886,123,Larynx,Sham,Tone,Clear,151,3,1,0.45995139994192896,1
8887,123,Larynx,Sham,Tone,Clear,152,4,1,0.462737299967557,1
8888,123,Larynx,Sham,Tone,Clear,153,5,1,0.48224730009678796,1
8889,123,Larynx,Sham,Tone,Clear,154,1,0,0.5293886999133971,1
8890,123,Larynx,Sham,Tone,Clear,155,2,0,0.574470699997619,1
8891,123,Larynx,Sham,Tone,Clear,156,3,1,0.427681299974211,1
9984,139,Larynx,Left cTBS,Tone,Clear,1,5,1,0.872379800013732,1
9985,139,Larynx,Left cTBS,Tone,Clear,2,2,0,0.967125899973325,1
9986,139,Larynx,Left cTBS,Tone,Clear,3,4,1,0.635906200041063,1
9987,139,Larynx,Left cTBS,Tone,Clear,4,3,1,1.08465969999088,1
9988,139,Larynx,Left cTBS,Tone,Clear,5,5,1,0.6357362000271679,1
9989,139,Larynx,Left cTBS,Tone,Clear,6,1,0,0.588053699990269,1
9990,139,Larynx,Left cTBS,Tone,Clear,7,4,1,0.5996378000127149,1
9991,139,Larynx,Left cTBS,Tone,Clear,8,5,1,0.7181402000132951,1
9992,139,Larynx,Left cTBS,Tone,Clear,9,2,0,0.545511099975556,1
9993,139,Larynx,Left cTBS,Tone,Clear,10,5,1,0.83179680001922,1
9994,139,Larynx,Left cTBS,Tone,Clear,11,5,1,0.6305658000055699,1
9995,139,Larynx,Left cTBS,Tone,Clear,12,3,0,0.832786099985242,1
9996,139,Larynx,Left cTBS,Tone,Clear,13,4,1,0.70817190001253,1
9997,139,Larynx,Left cTBS,Tone,Clear,14,3,0,0.799590299953707,1
9998,139,Larynx,Left cTBS,Tone,Clear,15,3,1,0.930707300023641,1
9999,139,Larynx,Left cTBS,Tone,Clear,16,4,1,0.7528410999802869,1
10000,139,Larynx,Left cTBS,Tone,Clear,17,1,0,0.6173621999914761,1
10001,139,Larynx,Left cTBS,Tone,Clear,18,1,0,0.6469998999964449,1
10002,139,Larynx,Left cTBS,Tone,Clear,19,4,1,0.712118299969006,1
10003,139,Larynx,Left cTBS,Tone,Clear,20,2,0,0.6497089000185949,1
10004,139,Larynx,Left cTBS,Tone,Clear,21,2,0,0.930059400037862,1
10005,139,Larynx,Left cTBS,Tone,Clear,22,3,1,0.695162200019695,1
10006,139,Larynx,Left cTBS,Tone,Clear,23,3,1,0.780648600019049,1
10007,139,Larynx,Left cTBS,Tone,Clear,24,1,0,0.6862357000354681,1
10008,139,Larynx,Left cTBS,Tone,Clear,25,4,1,0.676349100016523,1
10009,139,Larynx,Left cTBS,Tone,Clear,26,3,1,0.994482400012203,1
10010,139,Larynx,Left cTBS,Tone,Clear,27,2,0,0.734436300001107,1
10011,139,Larynx,Left cTBS,Tone,Clear,28,2,0,0.617025599989574,1
10012,139,Larynx,Left cTBS,Tone,Clear,29,4,1,0.648257299966645,1
10013,139,Larynx,Left cTBS,Tone,Clear,30,3,0,0.772014299989678,1
10014,139,Larynx,Left cTBS,Tone,Clear,31,4,1,0.911238999979105,1
10015,139,Larynx,Left cTBS,Tone,Clear,32,1,0,0.571510800044052,1
10016,139,Larynx,Left cTBS,Tone,Clear,33,1,0,0.613077400019392,1
10017,139,Larynx,Left cTBS,Tone,Clear,34,2,0,0.9074965000036171,1
10018,139,Larynx,Left cTBS,Tone,Clear,35,2,0,0.919703099993058,1
10019,139,Larynx,Left cTBS,Tone,Clear,36,3,1,0.8092201999970708,1
10020,139,Larynx,Left cTBS,Tone,Clear,37,3,1,0.6726887000259011,1
10021,139,Larynx,Left cTBS,Tone,Clear,38,5,1,0.89695429999847,1
10022,139,Larynx,Left cTBS,Tone,Clear,39,3,0,1.2978729999740601,1
10023,139,Larynx,Left cTBS,Tone,Clear,40,5,1,0.653241999971215,1
10024,139,Larynx,Left cTBS,Tone,Clear,41,3,0,1.28614159999415,1
10025,139,Larynx,Left cTBS,Tone,Clear,42,1,0,0.9611886999919079,1
10026,139,Larynx,Left cTBS,Tone,Clear,43,2,0,0.70501840003999,1
10027,139,Larynx,Left cTBS,Tone,Clear,44,3,1,0.9745265999808911,1
10028,139,Larynx,Left cTBS,Tone,Clear,45,4,1,0.7343648999813008,1
10029,139,Larynx,Left cTBS,Tone,Clear,46,3,0,1.27558089996455,1
10030,139,Larynx,Left cTBS,Tone,Clear,47,4,1,0.737729199987371,1
10031,139,Larynx,Left cTBS,Tone,Clear,48,3,1,0.8871004999964499,1
10032,139,Larynx,Left cTBS,Tone,Clear,49,3,0,0.970665300032124,1
10033,139,Larynx,Left cTBS,Tone,Clear,50,5,0,0.691637700016145,1
10034,139,Larynx,Left cTBS,Tone,Clear,51,2,0,0.7534447999787521,1
10035,139,Larynx,Left cTBS,Tone,Clear,52,4,1,0.7349236999871209,1
10036,139,Larynx,Left cTBS,Tone,Clear,53,3,0,1.1696433000033701,1
10037,139,Larynx,Left cTBS,Tone,Clear,54,1,0,0.823697799991351,1
10038,139,Larynx,Left cTBS,Tone,Clear,55,2,0,1.09463100001449,1
10039,139,Larynx,Left cTBS,Tone,Clear,56,1,0,0.759223300032318,1
10040,139,Larynx,Left cTBS,Tone,Clear,57,4,1,0.666355199995451,1
10041,139,Larynx,Left cTBS,Tone,Clear,58,2,0,0.676572699972894,1
10042,139,Larynx,Left cTBS,Tone,Clear,59,2,0,0.8714416000293571,1
10043,139,Larynx,Left cTBS,Tone,Clear,60,1,0,0.7966318000108,1
10044,139,Larynx,Left cTBS,Tone,Clear,61,4,1,0.569904700038023,1
10045,139,Larynx,Left cTBS,Tone,Clear,62,3,0,1.08837499999208,1
10046,139,Larynx,Left cTBS,Tone,Clear,63,5,1,0.590578400006052,1
10047,139,Larynx,Left cTBS,Tone,Clear,64,2,0,0.849626499984879,1
10048,139,Larynx,Left cTBS,Tone,Clear,65,3,0,1.10043560003396,1
10049,139,Larynx,Left cTBS,Tone,Clear,66,3,1,1.17556840000907,1
10050,139,Larynx,Left cTBS,Tone,Clear,67,5,1,0.787584499979857,1
10051,139,Larynx,Left cTBS,Tone,Clear,68,1,0,0.63157740002498,1
10052,139,Larynx,Left cTBS,Tone,Clear,69,5,1,0.799812900018878,1
10053,139,Larynx,Left cTBS,Tone,Clear,70,4,1,0.72107510000933,1
10054,139,Larynx,Left cTBS,Tone,Clear,71,3,0,0.882516800018493,1
10055,139,Larynx,Left cTBS,Tone,Clear,72,4,1,0.743826000019908,1
10056,139,Larynx,Left cTBS,Tone,Clear,73,2,0,0.762418499973137,1
10057,139,Larynx,Left cTBS,Tone,Clear,74,1,0,1.06692300003488,1
10058,139,Larynx,Left cTBS,Tone,Clear,75,3,1,0.954911299981177,1
10059,139,Larynx,Left cTBS,Tone,Clear,76,2,0,0.820169800019357,1
10060,139,Larynx,Left cTBS,Tone,Clear,77,4,1,0.8483032999793071,1
10061,139,Larynx,Left cTBS,Tone,Clear,78,5,1,0.7298829000210391,1
10062,139,Larynx,Left cTBS,Tone,Clear,79,4,1,0.8486552999820559,1
10063,139,Larynx,Left cTBS,Tone,Clear,80,3,0,0.7411588999675591,1
10064,139,Larynx,Left cTBS,Tone,Clear,81,2,0,1.1570269999792802,1
10065,139,Larynx,Left cTBS,Tone,Clear,82,3,1,0.9230085999588481,1
10066,139,Larynx,Left cTBS,Tone,Clear,83,2,0,0.667096099990886,1
10067,139,Larynx,Left cTBS,Tone,Clear,84,3,0,1.1353085999726298,1
10068,139,Larynx,Left cTBS,Tone,Clear,85,1,0,0.8892546999850309,1
10069,139,Larynx,Left cTBS,Tone,Clear,86,4,1,0.601301899994724,1
10070,139,Larynx,Left cTBS,Tone,Clear,87,5,1,0.559707399981562,1
10071,139,Larynx,Left cTBS,Tone,Clear,88,3,0,0.6744647999876179,1
10072,139,Larynx,Left cTBS,Tone,Clear,89,4,1,1.14677690004464,1
10073,139,Larynx,Left cTBS,Tone,Clear,90,2,0,0.933200899977237,1
10074,139,Larynx,Left cTBS,Tone,Clear,91,3,0,1.00329700001748,1
10075,139,Larynx,Left cTBS,Tone,Clear,92,2,0,0.926552099990658,1
10076,139,Larynx,Left cTBS,Tone,Clear,93,5,1,0.621664799982682,1
10077,139,Larynx,Left cTBS,Tone,Clear,94,3,0,1.18199219997041,1
10078,139,Larynx,Left cTBS,Tone,Clear,95,2,0,0.804613500018604,1
10079,139,Larynx,Left cTBS,Tone,Clear,96,4,1,0.7639725999906659,1
10080,139,Larynx,Left cTBS,Tone,Clear,97,2,0,0.810084400000051,1
10081,139,Larynx,Left cTBS,Tone,Clear,98,1,0,0.845175900030881,1
10082,139,Larynx,Left cTBS,Tone,Clear,99,5,1,0.647702399990521,1
10083,139,Larynx,Left cTBS,Tone,Clear,100,5,1,0.659755200031213,1
10084,139,Larynx,Left cTBS,Tone,Clear,101,1,0,0.7135156000149441,1
10085,139,Larynx,Left cTBS,Tone,Clear,102,4,1,0.7495716999983421,1
10086,139,Larynx,Left cTBS,Tone,Clear,103,4,1,0.6810355000197889,1
10087,139,Larynx,Left cTBS,Tone,Clear,104,5,1,0.876976599975023,1
10088,139,Larynx,Left cTBS,Tone,Clear,105,3,0,0.7771396999596619,1
10089,139,Larynx,Left cTBS,Tone,Clear,106,3,0,0.9714329999987971,1
10090,139,Larynx,Left cTBS,Tone,Clear,107,5,1,0.671145599975716,1
10091,139,Larynx,Left cTBS,Tone,Clear,108,3,0,0.778952199965715,1
10092,139,Larynx,Left cTBS,Tone,Clear,109,2,0,0.795405000040773,1
10093,139,Larynx,Left cTBS,Tone,Clear,110,1,0,0.736879299976863,1
10094,139,Larynx,Left cTBS,Tone,Clear,111,1,0,1.08556670002872,1
10095,139,Larynx,Left cTBS,Tone,Clear,112,4,1,0.9721684999531139,1
10096,139,Larynx,Left cTBS,Tone,Clear,113,3,0,0.950394899991807,1
10097,139,Larynx,Left cTBS,Tone,Clear,114,3,1,1.00282670004526,1
10098,139,Larynx,Left cTBS,Tone,Clear,115,4,1,0.710066700004973,1
10099,139,Larynx,Left cTBS,Tone,Clear,116,1,0,0.6027635000064039,1
10100,139,Larynx,Left cTBS,Tone,Clear,117,2,0,0.8437966000055891,1
10101,139,Larynx,Left cTBS,Tone,Clear,118,3,0,1.6544589999830401,1
10102,139,Larynx,Left cTBS,Tone,Clear,119,2,0,0.874199700017925,1
10103,139,Larynx,Left cTBS,Tone,Clear,120,3,1,0.778893199982122,1
10104,139,Larynx,Left cTBS,Tone,Clear,121,1,0,0.9533982999855649,1
10105,139,Larynx,Left cTBS,Tone,Clear,122,4,1,0.585329300025478,1
10106,139,Larynx,Left cTBS,Tone,Clear,123,5,1,0.550537800008897,1
10107,139,Larynx,Left cTBS,Tone,Clear,124,3,1,1.00027730001602,1
10108,139,Larynx,Left cTBS,Tone,Clear,125,2,0,1.15441680001095,1
10109,139,Larynx,Left cTBS,Tone,Clear,126,5,1,0.7422537999809721,1
10110,139,Larynx,Left cTBS,Tone,Clear,127,1,0,0.861844300001394,1
10111,139,Larynx,Left cTBS,Tone,Clear,128,4,0,0.7536308999988249,1
10112,139,Larynx,Left cTBS,Tone,Clear,129,2,0,0.9181670999969359,1
10113,139,Larynx,Left cTBS,Tone,Clear,130,4,1,0.5761209999909621,1
10114,139,Larynx,Left cTBS,Tone,Clear,131,3,0,0.847409099980723,1
10115,139,Larynx,Left cTBS,Tone,Clear,132,3,1,1.01539899996715,1
10116,139,Larynx,Left cTBS,Tone,Clear,133,2,0,1.0958420000388298,1
10117,139,Larynx,Left cTBS,Tone,Clear,134,2,0,0.7096692000050101,1
10118,139,Larynx,Left cTBS,Tone,Clear,135,5,1,1.0006914999685301,1
10119,139,Larynx,Left cTBS,Tone,Clear,136,3,0,0.8080919000203721,1
10120,139,Larynx,Left cTBS,Tone,Clear,137,5,1,0.7724012000253421,1
10121,139,Larynx,Left cTBS,Tone,Clear,138,4,1,0.921657900034916,1
10122,139,Larynx,Left cTBS,Tone,Clear,139,1,0,0.7368162999628108,1
10123,139,Larynx,Left cTBS,Tone,Clear,140,4,1,0.975168899982236,1
10124,139,Larynx,Left cTBS,Tone,Clear,141,3,0,0.855992399971001,1
10125,139,Larynx,Left cTBS,Tone,Clear,142,1,0,0.822844300011639,1
10126,139,Larynx,Left cTBS,Tone,Clear,143,4,1,0.725247099995613,1
10127,139,Larynx,Left cTBS,Tone,Clear,144,4,1,0.7233945000334642,1
10128,139,Larynx,Left cTBS,Tone,Clear,145,2,0,0.7165512999636121,1
10129,139,Larynx,Left cTBS,Tone,Clear,146,5,1,0.990472999983467,1
10130,139,Larynx,Left cTBS,Tone,Clear,147,4,1,0.8705753000103872,1
10131,139,Larynx,Left cTBS,Tone,Clear,148,2,0,0.643311099964194,1
10132,139,Larynx,Left cTBS,Tone,Clear,149,1,0,0.969721200002823,1
10133,139,Larynx,Left cTBS,Tone,Clear,150,1,0,0.7288545999908821,1
10134,139,Larynx,Left cTBS,Tone,Clear,151,3,0,1.09980879997602,1
10135,139,Larynx,Left cTBS,Tone,Clear,152,5,1,0.728622300026473,1
10136,139,Larynx,Left cTBS,Tone,Clear,153,3,0,0.734681200003251,1
10137,139,Larynx,Left cTBS,Tone,Clear,154,3,0,0.708655799971893,1
10138,139,Larynx,Left cTBS,Tone,Clear,155,2,0,0.549439999973401,1
10139,139,Larynx,Left cTBS,Tone,Clear,156,3,1,0.9550143000087701,1
11856,139,Larynx,Sham,Tone,Clear,1,4,1,0.7818881000057439,1
11857,139,Larynx,Sham,Tone,Clear,2,2,0,0.474503099998401,1
11858,139,Larynx,Sham,Tone,Clear,3,2,0,0.8289355000015349,1
11859,139,Larynx,Sham,Tone,Clear,4,3,1,0.8213532999943709,1
11860,139,Larynx,Sham,Tone,Clear,5,3,0,0.8579582000020308,1
11861,139,Larynx,Sham,Tone,Clear,6,3,1,0.8422052000023539,1
11862,139,Larynx,Sham,Tone,Clear,7,4,1,0.924107899998489,1
11863,139,Larynx,Sham,Tone,Clear,8,1,0,0.534117300005164,1
11864,139,Larynx,Sham,Tone,Clear,9,1,0,0.654547600002843,1
11865,139,Larynx,Sham,Tone,Clear,10,2,1,0.9475633999973071,1
11866,139,Larynx,Sham,Tone,Clear,11,2,1,1.16263679999975,1
11867,139,Larynx,Sham,Tone,Clear,12,4,1,0.7266509999972192,1
11868,139,Larynx,Sham,Tone,Clear,13,5,1,0.635464899998624,1
11869,139,Larynx,Sham,Tone,Clear,14,5,1,0.6407045000014481,1
11870,139,Larynx,Sham,Tone,Clear,15,3,0,1.03630870000052,1
11871,139,Larynx,Sham,Tone,Clear,16,2,0,0.640642000005755,1
11872,139,Larynx,Sham,Tone,Clear,17,4,1,0.5327541000006021,1
11873,139,Larynx,Sham,Tone,Clear,18,1,0,0.629667599998356,1
11874,139,Larynx,Sham,Tone,Clear,19,1,0,0.650240099996154,1
11875,139,Larynx,Sham,Tone,Clear,20,3,1,0.7652082999993579,1
11876,139,Larynx,Sham,Tone,Clear,21,3,1,0.976534200002789,1
11877,139,Larynx,Sham,Tone,Clear,22,2,0,0.6062581999940451,1
11878,139,Larynx,Sham,Tone,Clear,23,5,1,0.720507999998517,1
11879,139,Larynx,Sham,Tone,Clear,24,4,1,0.6542747000057719,1
11880,139,Larynx,Sham,Tone,Clear,25,5,1,0.5918234000055239,1
11881,139,Larynx,Sham,Tone,Clear,26,3,1,1.24599359999411,1
11882,139,Larynx,Sham,Tone,Clear,27,4,1,0.723858199999086,1
11883,139,Larynx,Sham,Tone,Clear,28,3,1,1.16821319999872,1
11884,139,Larynx,Sham,Tone,Clear,29,1,0,0.939424799995322,1
11885,139,Larynx,Sham,Tone,Clear,30,5,1,0.7689411999963341,1
11886,139,Larynx,Sham,Tone,Clear,31,1,0,1.1178507000004199,1
11887,139,Larynx,Sham,Tone,Clear,32,3,1,0.8216577999992299,1
11888,139,Larynx,Sham,Tone,Clear,33,5,1,0.9942571999999928,1
11889,139,Larynx,Sham,Tone,Clear,34,3,1,0.7156738000048791,1
11890,139,Larynx,Sham,Tone,Clear,35,3,1,0.782960900003673,1
11891,139,Larynx,Sham,Tone,Clear,36,2,0,0.6268137000006391,1
11892,139,Larynx,Sham,Tone,Clear,37,4,1,0.7273927999995071,1
11893,139,Larynx,Sham,Tone,Clear,38,2,0,0.8453384999957049,1
11894,139,Larynx,Sham,Tone,Clear,39,4,1,0.7477916999996519,1
11895,139,Larynx,Sham,Tone,Clear,40,2,0,0.6292791000014399,1
11896,139,Larynx,Sham,Tone,Clear,41,3,1,0.944041800001287,1
11897,139,Larynx,Sham,Tone,Clear,42,5,1,0.5913465999983599,1
11898,139,Larynx,Sham,Tone,Clear,43,4,1,0.7035443999993729,1
11899,139,Larynx,Sham,Tone,Clear,44,1,0,0.514717199999723,1
11900,139,Larynx,Sham,Tone,Clear,45,2,0,0.740770999997039,1
11901,139,Larynx,Sham,Tone,Clear,46,5,1,0.509855600001174,1
11902,139,Larynx,Sham,Tone,Clear,47,1,0,0.704761799999687,1
11903,139,Larynx,Sham,Tone,Clear,48,3,1,0.7613093000036321,1
11904,139,Larynx,Sham,Tone,Clear,49,1,0,0.6823277000003151,1
11905,139,Larynx,Sham,Tone,Clear,50,3,1,0.689872599999944,1
11906,139,Larynx,Sham,Tone,Clear,51,1,0,0.7639194000003041,1
11907,139,Larynx,Sham,Tone,Clear,52,4,1,0.535447399997793,1
11908,139,Larynx,Sham,Tone,Clear,53,5,1,0.6592779000056911,1
11909,139,Larynx,Sham,Tone,Clear,54,4,1,0.6194306999968829,1
11910,139,Larynx,Sham,Tone,Clear,55,4,1,0.593677500000922,1
11911,139,Larynx,Sham,Tone,Clear,56,5,1,0.6616082999971701,1
11912,139,Larynx,Sham,Tone,Clear,57,2,0,0.6824909000060869,1
11913,139,Larynx,Sham,Tone,Clear,58,2,0,0.9078526000012059,1
11914,139,Larynx,Sham,Tone,Clear,59,5,1,0.49659190000238596,1
11915,139,Larynx,Sham,Tone,Clear,60,3,0,0.935720100002072,1
11916,139,Larynx,Sham,Tone,Clear,61,3,0,1.2564859999984,1
11917,139,Larynx,Sham,Tone,Clear,62,4,1,0.679918300003919,1
11918,139,Larynx,Sham,Tone,Clear,63,2,0,0.966023499997391,1
11919,139,Larynx,Sham,Tone,Clear,64,2,0,0.7535679000066009,1
11920,139,Larynx,Sham,Tone,Clear,65,1,0,0.647378699999535,1
11921,139,Larynx,Sham,Tone,Clear,66,4,1,0.7148979000048711,1
11922,139,Larynx,Sham,Tone,Clear,67,3,1,0.944946000003256,1
11923,139,Larynx,Sham,Tone,Clear,68,3,0,0.8909580000035929,1
11924,139,Larynx,Sham,Tone,Clear,69,3,1,0.921047300005739,1
11925,139,Larynx,Sham,Tone,Clear,70,4,1,0.806048300000839,1
11926,139,Larynx,Sham,Tone,Clear,71,5,1,0.705060699998285,1
11927,139,Larynx,Sham,Tone,Clear,72,2,0,0.6801640000048791,1
11928,139,Larynx,Sham,Tone,Clear,73,2,0,0.753046300000278,1
11929,139,Larynx,Sham,Tone,Clear,74,3,1,1.1144152999986499,1
11930,139,Larynx,Sham,Tone,Clear,75,3,1,1.1567321000038602,1
11931,139,Larynx,Sham,Tone,Clear,76,3,0,1.2700989000004501,1
11932,139,Larynx,Sham,Tone,Clear,77,1,0,0.768865500001994,1
11933,139,Larynx,Sham,Tone,Clear,78,4,1,0.626293299996178,1
11934,139,Larynx,Sham,Tone,Clear,79,2,0,0.734229999994568,1
11935,139,Larynx,Sham,Tone,Clear,80,4,1,0.608526700001676,1
11936,139,Larynx,Sham,Tone,Clear,81,2,0,0.75957699999708,1
11937,139,Larynx,Sham,Tone,Clear,82,3,1,0.6424994000044529,1
11938,139,Larynx,Sham,Tone,Clear,83,2,0,0.617680700001074,1
11939,139,Larynx,Sham,Tone,Clear,84,5,1,0.636349499996868,1
11940,139,Larynx,Sham,Tone,Clear,85,3,1,0.940243900004134,1
11941,139,Larynx,Sham,Tone,Clear,86,5,1,0.773711999994703,1
11942,139,Larynx,Sham,Tone,Clear,87,4,1,0.7522823000035709,1
11943,139,Larynx,Sham,Tone,Clear,88,4,1,0.755126299998665,1
11944,139,Larynx,Sham,Tone,Clear,89,1,0,0.506969000001845,1
11945,139,Larynx,Sham,Tone,Clear,90,3,1,0.839482800001861,1
11946,139,Larynx,Sham,Tone,Clear,91,5,1,0.6266680000044289,1
11947,139,Larynx,Sham,Tone,Clear,92,4,1,0.6780990999977801,1
11948,139,Larynx,Sham,Tone,Clear,93,2,0,0.52025390000199,1
11949,139,Larynx,Sham,Tone,Clear,94,3,1,0.7404550999999631,1
11950,139,Larynx,Sham,Tone,Clear,95,2,0,0.6626823999977199,1
11951,139,Larynx,Sham,Tone,Clear,96,5,1,0.675790999994206,1
11952,139,Larynx,Sham,Tone,Clear,97,3,1,0.9689770000040879,1
11953,139,Larynx,Sham,Tone,Clear,98,3,0,1.2611064000011498,1
11954,139,Larynx,Sham,Tone,Clear,99,2,0,0.652551500003028,1
11955,139,Larynx,Sham,Tone,Clear,100,1,0,0.8188312999991469,1
11956,139,Larynx,Sham,Tone,Clear,101,4,1,0.6463943999988261,1
11957,139,Larynx,Sham,Tone,Clear,102,1,0,1.28056469999865,1
11958,139,Larynx,Sham,Tone,Clear,103,3,0,1.1047488999975,1
11959,139,Larynx,Sham,Tone,Clear,104,4,1,0.834365599999728,1
11960,139,Larynx,Sham,Tone,Clear,105,4,1,0.7303549999996899,1
11961,139,Larynx,Sham,Tone,Clear,106,1,0,0.45527949999814205,1
11962,139,Larynx,Sham,Tone,Clear,107,2,0,0.662805499996466,1
11963,139,Larynx,Sham,Tone,Clear,108,3,1,0.8781639000008,1
11964,139,Larynx,Sham,Tone,Clear,109,5,1,0.8462883999964109,1
11965,139,Larynx,Sham,Tone,Clear,110,4,1,0.803627699999197,1
11966,139,Larynx,Sham,Tone,Clear,111,5,1,0.7521474000022859,1
11967,139,Larynx,Sham,Tone,Clear,112,3,0,0.774296099996718,1
11968,139,Larynx,Sham,Tone,Clear,113,2,0,0.6338414000056221,1
11969,139,Larynx,Sham,Tone,Clear,114,3,1,0.8481987000050141,1
11970,139,Larynx,Sham,Tone,Clear,115,3,1,0.7427033999993001,1
11971,139,Larynx,Sham,Tone,Clear,116,1,0,0.587384600003134,1
11972,139,Larynx,Sham,Tone,Clear,117,1,0,0.7078622000044559,1
11973,139,Larynx,Sham,Tone,Clear,118,5,1,0.6275120999998759,1
11974,139,Larynx,Sham,Tone,Clear,119,4,1,0.520007999999507,1
11975,139,Larynx,Sham,Tone,Clear,120,3,1,1.0395989000026,1
11976,139,Larynx,Sham,Tone,Clear,121,4,1,0.799060799996369,1
11977,139,Larynx,Sham,Tone,Clear,122,3,0,0.9335671000008009,1
11978,139,Larynx,Sham,Tone,Clear,123,4,1,0.812313199996424,1
11979,139,Larynx,Sham,Tone,Clear,124,2,0,0.604376299997966,1
11980,139,Larynx,Sham,Tone,Clear,125,5,1,0.640508700002101,1
11981,139,Larynx,Sham,Tone,Clear,126,1,0,0.8759916999988492,1
11982,139,Larynx,Sham,Tone,Clear,127,2,0,0.635131700000784,1
11983,139,Larynx,Sham,Tone,Clear,128,3,1,0.8369953000001259,1
11984,139,Larynx,Sham,Tone,Clear,129,3,0,0.927637199994933,1
11985,139,Larynx,Sham,Tone,Clear,130,4,1,0.9477592999974151,1
11986,139,Larynx,Sham,Tone,Clear,131,3,0,1.04990270000417,1
11987,139,Larynx,Sham,Tone,Clear,132,2,0,0.83275020000292,1
11988,139,Larynx,Sham,Tone,Clear,133,4,1,0.6768851000015269,1
11989,139,Larynx,Sham,Tone,Clear,134,3,1,0.84143259999837,1
11990,139,Larynx,Sham,Tone,Clear,135,5,1,0.6606649000023029,1
11991,139,Larynx,Sham,Tone,Clear,136,3,0,0.786249099997804,1
11992,139,Larynx,Sham,Tone,Clear,137,2,0,0.712410899999668,1
11993,139,Larynx,Sham,Tone,Clear,138,3,1,0.6879818999950661,1
11994,139,Larynx,Sham,Tone,Clear,139,1,0,0.697483799995098,1
11995,139,Larynx,Sham,Tone,Clear,140,2,0,0.6991788999948771,1
11996,139,Larynx,Sham,Tone,Clear,141,1,0,0.8692941000044809,1
11997,139,Larynx,Sham,Tone,Clear,142,5,1,0.544607299998461,1
11998,139,Larynx,Sham,Tone,Clear,143,1,0,0.799251799995545,1
11999,139,Larynx,Sham,Tone,Clear,144,4,1,0.768605899997056,1
12000,139,Larynx,Sham,Tone,Clear,145,1,0,0.621584099993925,1
12001,139,Larynx,Sham,Tone,Clear,146,4,1,0.761611499998253,1
12002,139,Larynx,Sham,Tone,Clear,147,3,1,0.943563599998015,1
12003,139,Larynx,Sham,Tone,Clear,148,2,0,0.5724847000019511,1
12004,139,Larynx,Sham,Tone,Clear,149,2,0,0.681649499994819,1
12005,139,Larynx,Sham,Tone,Clear,150,5,1,0.588431500000297,1
12006,139,Larynx,Sham,Tone,Clear,151,3,1,1.22443850000127,1
12007,139,Larynx,Sham,Tone,Clear,152,4,1,0.625571700002183,1
12008,139,Larynx,Sham,Tone,Clear,153,5,1,0.8194507000007429,1
12009,139,Larynx,Sham,Tone,Clear,154,1,0,0.6437414000029089,1
12010,139,Larynx,Sham,Tone,Clear,155,2,0,0.76219790000323,1
12011,139,Larynx,Sham,Tone,Clear,156,3,1,0.8359131999968671,1
13104,142,Larynx,Left cTBS,Tone,Clear,1,5,0,0.59134919999633,1
13105,142,Larynx,Left cTBS,Tone,Clear,2,4,1,0.824514099978842,1
13106,142,Larynx,Left cTBS,Tone,Clear,3,3,1,0.7148391000228002,1
13107,142,Larynx,Left cTBS,Tone,Clear,4,4,1,0.6114808999700471,1
13108,142,Larynx,Left cTBS,Tone,Clear,5,3,0,0.664526100037619,1
13109,142,Larynx,Left cTBS,Tone,Clear,6,4,1,0.48875460005365295,1
13110,142,Larynx,Left cTBS,Tone,Clear,7,2,1,0.5702308999607341,1
13111,142,Larynx,Left cTBS,Tone,Clear,8,5,1,0.742980599985458,1
13112,142,Larynx,Left cTBS,Tone,Clear,9,1,0,0.821446800022386,1
13113,142,Larynx,Left cTBS,Tone,Clear,10,2,0,0.914673699997365,1
13114,142,Larynx,Left cTBS,Tone,Clear,11,3,1,0.5366687999339771,1
13115,142,Larynx,Left cTBS,Tone,Clear,12,3,1,0.709264499950223,1
13116,142,Larynx,Left cTBS,Tone,Clear,13,4,1,0.553388700005598,1
13117,142,Larynx,Left cTBS,Tone,Clear,14,3,0,0.7726045999443159,1
13118,142,Larynx,Left cTBS,Tone,Clear,15,2,1,0.5452223999891429,1
13119,142,Larynx,Left cTBS,Tone,Clear,16,4,1,1.06389019999187,1
13120,142,Larynx,Left cTBS,Tone,Clear,17,3,1,0.8028337999712679,1
13121,142,Larynx,Left cTBS,Tone,Clear,18,5,1,0.6788705999497321,1
13122,142,Larynx,Left cTBS,Tone,Clear,19,3,0,0.7906855000182991,1
13123,142,Larynx,Left cTBS,Tone,Clear,20,2,0,0.527640099986456,1
13124,142,Larynx,Left cTBS,Tone,Clear,21,3,1,0.812262799940072,1
13125,142,Larynx,Left cTBS,Tone,Clear,22,1,0,0.638174499967135,1
13126,142,Larynx,Left cTBS,Tone,Clear,23,2,0,0.614820800023153,1
13127,142,Larynx,Left cTBS,Tone,Clear,24,1,0,0.564905800041743,1
13128,142,Larynx,Left cTBS,Tone,Clear,25,5,1,0.462737699970603,1
13129,142,Larynx,Left cTBS,Tone,Clear,26,1,0,0.6959382999921221,1
13130,142,Larynx,Left cTBS,Tone,Clear,27,4,1,0.485270200064406,1
13131,142,Larynx,Left cTBS,Tone,Clear,28,1,0,0.5734377000480889,1
13132,142,Larynx,Left cTBS,Tone,Clear,29,4,1,0.519731600070372,1
13133,142,Larynx,Left cTBS,Tone,Clear,30,3,1,0.692822700017132,1
13134,142,Larynx,Left cTBS,Tone,Clear,31,2,0,0.519359600031748,1
13135,142,Larynx,Left cTBS,Tone,Clear,32,2,0,0.5756259000627321,1
13136,142,Larynx,Left cTBS,Tone,Clear,33,5,1,0.43989929999224797,1
13137,142,Larynx,Left cTBS,Tone,Clear,34,3,0,0.633201600052416,1
13138,142,Larynx,Left cTBS,Tone,Clear,35,4,1,0.5437959000701079,1
13139,142,Larynx,Left cTBS,Tone,Clear,36,5,1,0.50122650002595,1
13140,142,Larynx,Left cTBS,Tone,Clear,37,1,0,0.6686667000176391,1
13141,142,Larynx,Left cTBS,Tone,Clear,38,2,0,0.593781500007026,1
13142,142,Larynx,Left cTBS,Tone,Clear,39,3,1,0.493911499972455,1
13143,142,Larynx,Left cTBS,Tone,Clear,40,3,1,0.6952544000232591,1
13144,142,Larynx,Left cTBS,Tone,Clear,41,4,1,0.5616142000071701,1
13145,142,Larynx,Left cTBS,Tone,Clear,42,2,0,0.7371747000142929,1
13146,142,Larynx,Left cTBS,Tone,Clear,43,3,0,0.7558360999682919,1
13147,142,Larynx,Left cTBS,Tone,Clear,44,2,0,0.643793600029312,1
13148,142,Larynx,Left cTBS,Tone,Clear,45,4,1,0.46371480007655896,1
13149,142,Larynx,Left cTBS,Tone,Clear,46,3,0,0.9576276000589129,1
13150,142,Larynx,Left cTBS,Tone,Clear,47,1,0,0.699551800033078,1
13151,142,Larynx,Left cTBS,Tone,Clear,48,2,0,1.07070699997712,1
13152,142,Larynx,Left cTBS,Tone,Clear,49,1,0,0.637865900062025,1
13153,142,Larynx,Left cTBS,Tone,Clear,50,3,1,0.5643899999558929,1
13154,142,Larynx,Left cTBS,Tone,Clear,51,5,1,0.8438941999338571,1
13155,142,Larynx,Left cTBS,Tone,Clear,52,2,0,0.7061517999973149,1
13156,142,Larynx,Left cTBS,Tone,Clear,53,4,1,0.540385900065303,1
13157,142,Larynx,Left cTBS,Tone,Clear,54,3,1,0.8905286999652159,1
13158,142,Larynx,Left cTBS,Tone,Clear,55,3,1,0.5579132999991999,1
13159,142,Larynx,Left cTBS,Tone,Clear,56,1,0,0.660932200029492,1
13160,142,Larynx,Left cTBS,Tone,Clear,57,4,1,0.601778500014916,1
13161,142,Larynx,Left cTBS,Tone,Clear,58,3,1,0.735715000075288,1
13162,142,Larynx,Left cTBS,Tone,Clear,59,5,1,0.7811163999140258,1
13163,142,Larynx,Left cTBS,Tone,Clear,60,2,0,0.57709610008169,1
13164,142,Larynx,Left cTBS,Tone,Clear,61,5,1,0.601457799901254,1
13165,142,Larynx,Left cTBS,Tone,Clear,62,4,1,0.686788900056854,1
13166,142,Larynx,Left cTBS,Tone,Clear,63,2,0,0.603418099926785,1
13167,142,Larynx,Left cTBS,Tone,Clear,64,5,1,0.5654452999588101,1
13168,142,Larynx,Left cTBS,Tone,Clear,65,5,1,0.641452500014566,1
13169,142,Larynx,Left cTBS,Tone,Clear,66,3,1,0.737754300003871,1
13170,142,Larynx,Left cTBS,Tone,Clear,67,1,0,0.5217106000054629,1
13171,142,Larynx,Left cTBS,Tone,Clear,68,1,0,0.615027099964209,1
13172,142,Larynx,Left cTBS,Tone,Clear,69,5,1,0.52412880002521,1
13173,142,Larynx,Left cTBS,Tone,Clear,70,3,0,0.681843500002287,1
13174,142,Larynx,Left cTBS,Tone,Clear,71,2,0,0.728925199946389,1
13175,142,Larynx,Left cTBS,Tone,Clear,72,2,0,0.49480629991740005,1
13176,142,Larynx,Left cTBS,Tone,Clear,73,4,1,0.441080400021747,1
13177,142,Larynx,Left cTBS,Tone,Clear,74,1,0,0.662262200028636,1
13178,142,Larynx,Left cTBS,Tone,Clear,75,3,1,0.5330838999943811,1
13179,142,Larynx,Left cTBS,Tone,Clear,76,4,1,0.62450249993708,1
13180,142,Larynx,Left cTBS,Tone,Clear,77,3,1,0.7893492999719459,1
13181,142,Larynx,Left cTBS,Tone,Clear,78,4,1,0.5743904999690129,1
13182,142,Larynx,Left cTBS,Tone,Clear,79,1,0,0.545127199962735,1
13183,142,Larynx,Left cTBS,Tone,Clear,80,1,0,0.575468400027603,1
13184,142,Larynx,Left cTBS,Tone,Clear,81,2,0,0.5557068999623879,1
13185,142,Larynx,Left cTBS,Tone,Clear,82,2,0,0.588368600001559,1
13186,142,Larynx,Left cTBS,Tone,Clear,83,3,0,0.623465499957092,1
13187,142,Larynx,Left cTBS,Tone,Clear,84,5,1,0.49560029990971105,1
13188,142,Larynx,Left cTBS,Tone,Clear,85,4,1,0.6111075999215251,1
13189,142,Larynx,Left cTBS,Tone,Clear,86,4,1,0.49619269999675497,1
13190,142,Larynx,Left cTBS,Tone,Clear,87,5,1,0.643642299924977,1
13191,142,Larynx,Left cTBS,Tone,Clear,88,2,0,0.6017688000574711,1
13192,142,Larynx,Left cTBS,Tone,Clear,89,5,1,0.490926099941134,1
13193,142,Larynx,Left cTBS,Tone,Clear,90,3,1,0.542367299902253,1
13194,142,Larynx,Left cTBS,Tone,Clear,91,1,0,0.611340199946426,1
13195,142,Larynx,Left cTBS,Tone,Clear,92,3,1,0.49984609999228297,1
13196,142,Larynx,Left cTBS,Tone,Clear,93,5,1,0.6078715000767261,1
13197,142,Larynx,Left cTBS,Tone,Clear,94,2,0,0.5965997999301179,1
13198,142,Larynx,Left cTBS,Tone,Clear,95,4,1,0.7055568000068891,1
13199,142,Larynx,Left cTBS,Tone,Clear,96,3,1,0.63229430001229,1
13200,142,Larynx,Left cTBS,Tone,Clear,97,2,0,0.713350099977106,1
13201,142,Larynx,Left cTBS,Tone,Clear,98,4,1,0.449637399986386,1
13202,142,Larynx,Left cTBS,Tone,Clear,99,4,1,0.556070200051181,1
13203,142,Larynx,Left cTBS,Tone,Clear,100,3,1,1.0636762999929499,1
13204,142,Larynx,Left cTBS,Tone,Clear,101,2,0,0.6079208999872211,1
13205,142,Larynx,Left cTBS,Tone,Clear,102,3,0,0.700346900033765,1
13206,142,Larynx,Left cTBS,Tone,Clear,103,4,1,0.47042090003378706,1
13207,142,Larynx,Left cTBS,Tone,Clear,104,3,0,0.757006700034253,1
13208,142,Larynx,Left cTBS,Tone,Clear,105,2,1,0.426877500023693,1
13209,142,Larynx,Left cTBS,Tone,Clear,106,3,1,0.849356699967757,1
13210,142,Larynx,Left cTBS,Tone,Clear,107,1,0,0.7722066000569608,1
13211,142,Larynx,Left cTBS,Tone,Clear,108,1,0,0.595663900021464,1
13212,142,Larynx,Left cTBS,Tone,Clear,109,3,1,0.533444699947722,1
13213,142,Larynx,Left cTBS,Tone,Clear,110,5,1,0.582881100010127,1
13214,142,Larynx,Left cTBS,Tone,Clear,111,1,0,0.627515099942684,1
13215,142,Larynx,Left cTBS,Tone,Clear,112,4,1,0.48815440002363203,1
13216,142,Larynx,Left cTBS,Tone,Clear,113,3,1,0.6230687999632211,1
13217,142,Larynx,Left cTBS,Tone,Clear,114,3,1,0.594108600053005,1
13218,142,Larynx,Left cTBS,Tone,Clear,115,2,0,0.655782699934207,1
13219,142,Larynx,Left cTBS,Tone,Clear,116,5,1,0.46669699996709796,1
13220,142,Larynx,Left cTBS,Tone,Clear,117,4,1,0.53081780008506,1
13221,142,Larynx,Left cTBS,Tone,Clear,118,1,0,0.541867300053127,1
13222,142,Larynx,Left cTBS,Tone,Clear,119,5,1,0.398991899914108,1
13223,142,Larynx,Left cTBS,Tone,Clear,120,3,1,0.9172770000295709,1
13224,142,Larynx,Left cTBS,Tone,Clear,121,2,0,0.5437935999361799,1
13225,142,Larynx,Left cTBS,Tone,Clear,122,2,0,0.542951700044796,1
13226,142,Larynx,Left cTBS,Tone,Clear,123,4,1,0.485609999974258,1
13227,142,Larynx,Left cTBS,Tone,Clear,124,1,0,0.541987400036305,1
13228,142,Larynx,Left cTBS,Tone,Clear,125,5,1,0.522352200001478,1
13229,142,Larynx,Left cTBS,Tone,Clear,126,1,0,0.632797900005244,1
13230,142,Larynx,Left cTBS,Tone,Clear,127,4,1,0.525935200043023,1
13231,142,Larynx,Left cTBS,Tone,Clear,128,5,1,0.572049899958074,1
13232,142,Larynx,Left cTBS,Tone,Clear,129,4,1,0.48757640004623704,1
13233,142,Larynx,Left cTBS,Tone,Clear,130,4,1,0.46586990007199297,1
13234,142,Larynx,Left cTBS,Tone,Clear,131,5,1,0.449493600055575,1
13235,142,Larynx,Left cTBS,Tone,Clear,132,2,0,0.6983622000552709,1
13236,142,Larynx,Left cTBS,Tone,Clear,133,3,0,0.539059799979441,1
13237,142,Larynx,Left cTBS,Tone,Clear,134,1,0,0.5655978000722829,1
13238,142,Larynx,Left cTBS,Tone,Clear,135,1,0,0.752453099936247,1
13239,142,Larynx,Left cTBS,Tone,Clear,136,4,1,0.5375516000203789,1
13240,142,Larynx,Left cTBS,Tone,Clear,137,3,1,0.689456799998879,1
13241,142,Larynx,Left cTBS,Tone,Clear,138,2,0,0.69246709998697,1
13242,142,Larynx,Left cTBS,Tone,Clear,139,3,1,0.45886789995711297,1
13243,142,Larynx,Left cTBS,Tone,Clear,140,4,1,0.7124957999913021,1
13244,142,Larynx,Left cTBS,Tone,Clear,141,3,1,0.535856700036675,1
13245,142,Larynx,Left cTBS,Tone,Clear,142,1,0,0.8197777000023051,1
13246,142,Larynx,Left cTBS,Tone,Clear,143,5,1,0.5686770000029361,1
13247,142,Larynx,Left cTBS,Tone,Clear,144,2,0,0.7780390999978409,1
13248,142,Larynx,Left cTBS,Tone,Clear,145,3,0,0.624784599989653,1
13249,142,Larynx,Left cTBS,Tone,Clear,146,3,0,0.6318796999985351,1
13250,142,Larynx,Left cTBS,Tone,Clear,147,2,0,0.715511100017466,1
13251,142,Larynx,Left cTBS,Tone,Clear,148,4,1,0.49869200005196007,1
13252,142,Larynx,Left cTBS,Tone,Clear,149,3,1,0.61942280002404,1
13253,142,Larynx,Left cTBS,Tone,Clear,150,4,1,0.5166201998945329,1
13254,142,Larynx,Left cTBS,Tone,Clear,151,3,1,0.5609552999958399,1
13255,142,Larynx,Left cTBS,Tone,Clear,152,2,0,0.602441599941812,1
13256,142,Larynx,Left cTBS,Tone,Clear,153,2,0,0.648302800022066,1
13257,142,Larynx,Left cTBS,Tone,Clear,154,5,1,0.539581099990755,1
13258,142,Larynx,Left cTBS,Tone,Clear,155,3,0,0.550643499940634,1
13259,142,Larynx,Left cTBS,Tone,Clear,156,3,1,0.7090974999591709,1
14976,142,Larynx,Sham,Tone,Clear,1,3,1,0.8087832999990501,1
14977,142,Larynx,Sham,Tone,Clear,2,4,1,0.651761999997689,1
14978,142,Larynx,Sham,Tone,Clear,3,2,0,0.511792999997851,1
14979,142,Larynx,Sham,Tone,Clear,4,5,1,0.6303017000027471,1
14980,142,Larynx,Sham,Tone,Clear,5,2,0,0.48858699999982497,1
14981,142,Larynx,Sham,Tone,Clear,6,3,1,0.8353018999987399,1
14982,142,Larynx,Sham,Tone,Clear,7,2,0,0.48307209999984496,1
14983,142,Larynx,Sham,Tone,Clear,8,5,1,0.657168600002478,1
14984,142,Larynx,Sham,Tone,Clear,9,1,0,0.46935229999871797,1
14985,142,Larynx,Sham,Tone,Clear,10,3,1,0.652590400000918,1
14986,142,Larynx,Sham,Tone,Clear,11,4,1,0.6769163000026309,1
14987,142,Larynx,Sham,Tone,Clear,12,3,1,0.675862899999629,1
14988,142,Larynx,Sham,Tone,Clear,13,5,1,0.619618400000036,1
14989,142,Larynx,Sham,Tone,Clear,14,4,1,0.516843900000822,1
14990,142,Larynx,Sham,Tone,Clear,15,4,1,0.5366593999970061,1
14991,142,Larynx,Sham,Tone,Clear,16,2,0,0.57842630000232,1
14992,142,Larynx,Sham,Tone,Clear,17,4,1,0.550445099997887,1
14993,142,Larynx,Sham,Tone,Clear,18,3,1,0.5708909999993921,1
14994,142,Larynx,Sham,Tone,Clear,19,1,0,0.620979600000283,1
14995,142,Larynx,Sham,Tone,Clear,20,2,0,0.540837399999873,1
14996,142,Larynx,Sham,Tone,Clear,21,3,1,0.8080004000003101,1
14997,142,Larynx,Sham,Tone,Clear,22,5,1,0.542599599997629,1
14998,142,Larynx,Sham,Tone,Clear,23,4,1,0.552406400001928,1
14999,142,Larynx,Sham,Tone,Clear,24,1,0,0.552370000001247,1
15000,142,Larynx,Sham,Tone,Clear,25,5,1,0.5598554999996851,1
15001,142,Larynx,Sham,Tone,Clear,26,2,1,0.622430300001724,1
15002,142,Larynx,Sham,Tone,Clear,27,3,0,0.813523699998768,1
15003,142,Larynx,Sham,Tone,Clear,28,1,0,0.5948156999984351,1
15004,142,Larynx,Sham,Tone,Clear,29,4,1,0.44679610000093795,1
15005,142,Larynx,Sham,Tone,Clear,30,1,0,0.499539600001299,1
15006,142,Larynx,Sham,Tone,Clear,31,1,0,0.6333526999987951,1
15007,142,Larynx,Sham,Tone,Clear,32,3,1,0.4532198999986579,1
15008,142,Larynx,Sham,Tone,Clear,33,5,1,0.6722283000017341,1
15009,142,Larynx,Sham,Tone,Clear,34,2,0,0.67599639999753,1
15010,142,Larynx,Sham,Tone,Clear,35,4,1,0.749935600000754,1
15011,142,Larynx,Sham,Tone,Clear,36,2,0,0.568952100002207,1
15012,142,Larynx,Sham,Tone,Clear,37,3,0,0.9022146999996041,1
15013,142,Larynx,Sham,Tone,Clear,38,3,0,0.704153100003168,1
15014,142,Larynx,Sham,Tone,Clear,39,3,1,0.583991300001799,1
15015,142,Larynx,Sham,Tone,Clear,40,2,0,0.531860700000834,1
15016,142,Larynx,Sham,Tone,Clear,41,4,1,0.557287300001917,1
15017,142,Larynx,Sham,Tone,Clear,42,4,1,0.559631500000251,1
15018,142,Larynx,Sham,Tone,Clear,43,2,0,0.61000520000016,1
15019,142,Larynx,Sham,Tone,Clear,44,3,0,0.707400100000086,1
15020,142,Larynx,Sham,Tone,Clear,45,3,0,0.7043478000014151,1
15021,142,Larynx,Sham,Tone,Clear,46,1,0,0.814026199997897,1
15022,142,Larynx,Sham,Tone,Clear,47,4,1,0.665942499999801,1
15023,142,Larynx,Sham,Tone,Clear,48,3,1,0.861360400002013,1
15024,142,Larynx,Sham,Tone,Clear,49,2,0,1.0537690999990401,1
15025,142,Larynx,Sham,Tone,Clear,50,5,1,0.693134100001771,1
15026,142,Larynx,Sham,Tone,Clear,51,1,0,0.5647647000005239,1
15027,142,Larynx,Sham,Tone,Clear,52,5,1,0.767477499997767,1
15028,142,Larynx,Sham,Tone,Clear,53,4,1,0.85844139999972,1
15029,142,Larynx,Sham,Tone,Clear,54,3,0,0.620215499999176,1
15030,142,Larynx,Sham,Tone,Clear,55,1,0,0.608660900001269,1
15031,142,Larynx,Sham,Tone,Clear,56,5,1,0.6121327000000749,1
15032,142,Larynx,Sham,Tone,Clear,57,3,1,0.9635854000007379,1
15033,142,Larynx,Sham,Tone,Clear,58,4,1,0.5908930000005059,1
15034,142,Larynx,Sham,Tone,Clear,59,3,1,0.8547513000012259,1
15035,142,Larynx,Sham,Tone,Clear,60,2,0,0.666601799999626,1
15036,142,Larynx,Sham,Tone,Clear,61,3,1,0.7132375000001051,1
15037,142,Larynx,Sham,Tone,Clear,62,3,1,0.693375200000446,1
15038,142,Larynx,Sham,Tone,Clear,63,2,0,0.652589599998464,1
15039,142,Larynx,Sham,Tone,Clear,64,5,1,0.505249600002571,1
15040,142,Larynx,Sham,Tone,Clear,65,5,1,0.668856699998287,1
15041,142,Larynx,Sham,Tone,Clear,66,1,0,1.01711639999849,1
15042,142,Larynx,Sham,Tone,Clear,67,3,0,0.62037920000148,1
15043,142,Larynx,Sham,Tone,Clear,68,4,1,0.47998469999947707,1
15044,142,Larynx,Sham,Tone,Clear,69,2,0,0.7690017999993871,1
15045,142,Larynx,Sham,Tone,Clear,70,3,1,0.872353399998246,1
15046,142,Larynx,Sham,Tone,Clear,71,3,1,0.639430200000788,1
15047,142,Larynx,Sham,Tone,Clear,72,2,0,0.666951900002459,1
15048,142,Larynx,Sham,Tone,Clear,73,1,0,0.571693899997626,1
15049,142,Larynx,Sham,Tone,Clear,74,4,1,0.45514589999947896,1
15050,142,Larynx,Sham,Tone,Clear,75,5,1,0.5243818999988429,1
15051,142,Larynx,Sham,Tone,Clear,76,1,0,0.51521860000139,1
15052,142,Larynx,Sham,Tone,Clear,77,2,0,0.623258699997677,1
15053,142,Larynx,Sham,Tone,Clear,78,4,1,0.473383700002159,1
15054,142,Larynx,Sham,Tone,Clear,79,3,0,0.679572400000325,1
15055,142,Larynx,Sham,Tone,Clear,80,4,1,0.532841300002474,1
15056,142,Larynx,Sham,Tone,Clear,81,2,0,0.6036792000013521,1
15057,142,Larynx,Sham,Tone,Clear,82,1,0,0.688067700000829,1
15058,142,Larynx,Sham,Tone,Clear,83,1,0,0.6157725000011851,1
15059,142,Larynx,Sham,Tone,Clear,84,3,1,0.458898699998826,1
15060,142,Larynx,Sham,Tone,Clear,85,3,1,0.61453430000256,1
15061,142,Larynx,Sham,Tone,Clear,86,5,1,0.657674699999916,1
15062,142,Larynx,Sham,Tone,Clear,87,5,1,0.581027000000176,1
15063,142,Larynx,Sham,Tone,Clear,88,3,1,0.7146152999994231,1
15064,142,Larynx,Sham,Tone,Clear,89,3,1,0.72960779999994,1
15065,142,Larynx,Sham,Tone,Clear,90,3,1,0.7356418999988821,1
15066,142,Larynx,Sham,Tone,Clear,91,4,1,0.580538899997919,1
15067,142,Larynx,Sham,Tone,Clear,92,2,0,0.546563300002163,1
15068,142,Larynx,Sham,Tone,Clear,93,3,0,0.54187119999915,1
15069,142,Larynx,Sham,Tone,Clear,94,4,1,0.707200199998624,1
15070,142,Larynx,Sham,Tone,Clear,95,5,1,0.5851617999978771,1
15071,142,Larynx,Sham,Tone,Clear,96,4,1,0.564779799999087,1
15072,142,Larynx,Sham,Tone,Clear,97,5,1,0.567665200000192,1
15073,142,Larynx,Sham,Tone,Clear,98,3,1,0.812413699997705,1
15074,142,Larynx,Sham,Tone,Clear,99,2,1,0.528701699997328,1
15075,142,Larynx,Sham,Tone,Clear,100,3,1,0.8228591000006421,1
15076,142,Larynx,Sham,Tone,Clear,101,4,1,0.7377899000020991,1
15077,142,Larynx,Sham,Tone,Clear,102,1,0,0.466491200000746,1
15078,142,Larynx,Sham,Tone,Clear,103,1,0,0.533158400001412,1
15079,142,Larynx,Sham,Tone,Clear,104,2,1,0.644257799998741,1
15080,142,Larynx,Sham,Tone,Clear,105,2,0,0.71463379999841,1
15081,142,Larynx,Sham,Tone,Clear,106,5,1,0.578486999998859,1
15082,142,Larynx,Sham,Tone,Clear,107,4,1,0.518386700001429,1
15083,142,Larynx,Sham,Tone,Clear,108,2,0,0.6228504999999129,1
15084,142,Larynx,Sham,Tone,Clear,109,4,1,0.455499100000452,1
15085,142,Larynx,Sham,Tone,Clear,110,2,0,0.995764399998734,1
15086,142,Larynx,Sham,Tone,Clear,111,3,0,0.507828000001609,1
15087,142,Larynx,Sham,Tone,Clear,112,1,0,0.59986729999946,1
15088,142,Larynx,Sham,Tone,Clear,113,1,0,0.5471672999992729,1
15089,142,Larynx,Sham,Tone,Clear,114,3,1,0.6812492999997629,1
15090,142,Larynx,Sham,Tone,Clear,115,4,1,0.47473100000206603,1
15091,142,Larynx,Sham,Tone,Clear,116,2,0,0.6224579000008821,1
15092,142,Larynx,Sham,Tone,Clear,117,5,1,0.519211999999243,1
15093,142,Larynx,Sham,Tone,Clear,118,3,1,0.881771300002583,1
15094,142,Larynx,Sham,Tone,Clear,119,3,1,0.9627128000029191,1
15095,142,Larynx,Sham,Tone,Clear,120,2,0,0.48242329999993705,1
15096,142,Larynx,Sham,Tone,Clear,121,1,0,0.5088407999974149,1
15097,142,Larynx,Sham,Tone,Clear,122,3,1,0.608102900001541,1
15098,142,Larynx,Sham,Tone,Clear,123,3,1,0.7499115999999051,1
15099,142,Larynx,Sham,Tone,Clear,124,2,0,0.582231500000489,1
15100,142,Larynx,Sham,Tone,Clear,125,1,0,0.520295399997849,1
15101,142,Larynx,Sham,Tone,Clear,126,4,1,0.468881499997224,1
15102,142,Larynx,Sham,Tone,Clear,127,4,1,0.438388800001121,1
15103,142,Larynx,Sham,Tone,Clear,128,5,1,0.579004200000782,1
15104,142,Larynx,Sham,Tone,Clear,129,5,1,0.41856100000222796,1
15105,142,Larynx,Sham,Tone,Clear,130,5,1,0.43395629999940905,1
15106,142,Larynx,Sham,Tone,Clear,131,3,1,0.8176485000003589,1
15107,142,Larynx,Sham,Tone,Clear,132,1,0,0.522930600000109,1
15108,142,Larynx,Sham,Tone,Clear,133,1,0,0.5444588999998811,1
15109,142,Larynx,Sham,Tone,Clear,134,2,0,0.6002687000000151,1
15110,142,Larynx,Sham,Tone,Clear,135,2,1,0.768291800002771,1
15111,142,Larynx,Sham,Tone,Clear,136,2,0,0.611867199997505,1
15112,142,Larynx,Sham,Tone,Clear,137,5,1,0.472377900001447,1
15113,142,Larynx,Sham,Tone,Clear,138,5,1,0.43301400000200396,1
15114,142,Larynx,Sham,Tone,Clear,139,4,1,0.368925400001899,1
15115,142,Larynx,Sham,Tone,Clear,140,4,1,0.509214900001098,1
15116,142,Larynx,Sham,Tone,Clear,141,2,1,0.400075800000195,1
15117,142,Larynx,Sham,Tone,Clear,142,2,0,0.6285365999974599,1
15118,142,Larynx,Sham,Tone,Clear,143,4,1,0.675903000003018,1
15119,142,Larynx,Sham,Tone,Clear,144,5,1,0.676254400001199,1
15120,142,Larynx,Sham,Tone,Clear,145,3,0,0.8004701999998359,1
15121,142,Larynx,Sham,Tone,Clear,146,3,0,0.698065900000074,1
15122,142,Larynx,Sham,Tone,Clear,147,3,1,0.4078776000023939,1
15123,142,Larynx,Sham,Tone,Clear,148,3,1,0.7441371999993859,1
15124,142,Larynx,Sham,Tone,Clear,149,3,1,0.830113600000914,1
15125,142,Larynx,Sham,Tone,Clear,150,4,1,0.605691100001422,1
15126,142,Larynx,Sham,Tone,Clear,151,4,1,0.553839600001083,1
15127,142,Larynx,Sham,Tone,Clear,152,4,1,0.549799699998403,1
15128,142,Larynx,Sham,Tone,Clear,153,1,0,0.654564799999207,1
15129,142,Larynx,Sham,Tone,Clear,154,3,1,0.543077400001494,1
15130,142,Larynx,Sham,Tone,Clear,155,1,0,0.7954256000011809,1
15131,142,Larynx,Sham,Tone,Clear,156,2,0,0.6478581000010311,1
16224,201,Larynx,Left cTBS,Tone,Clear,1,3,1,1.3401248999871298,1
16225,201,Larynx,Left cTBS,Tone,Clear,2,5,1,0.687375799985603,1
16226,201,Larynx,Left cTBS,Tone,Clear,3,2,0,0.8996788999647829,1
16227,201,Larynx,Left cTBS,Tone,Clear,4,1,0,0.672554999997374,1
16228,201,Larynx,Left cTBS,Tone,Clear,5,4,1,0.74075629998697,1
16229,201,Larynx,Left cTBS,Tone,Clear,6,4,1,0.64179670001613,1
16230,201,Larynx,Left cTBS,Tone,Clear,7,1,0,0.5974249999853779,1
16231,201,Larynx,Left cTBS,Tone,Clear,8,3,0,0.7069439000333659,1
16232,201,Larynx,Left cTBS,Tone,Clear,9,3,0,1.08047950000037,1
16233,201,Larynx,Left cTBS,Tone,Clear,10,1,0,0.612858800042886,1
16234,201,Larynx,Left cTBS,Tone,Clear,11,1,0,0.62756090000039,1
16235,201,Larynx,Left cTBS,Tone,Clear,12,4,1,0.579515699995682,1
16236,201,Larynx,Left cTBS,Tone,Clear,13,3,0,0.6106008999631739,1
16237,201,Larynx,Left cTBS,Tone,Clear,14,1,0,0.586735999968369,1
16238,201,Larynx,Left cTBS,Tone,Clear,15,5,1,0.481601600011345,1
16239,201,Larynx,Left cTBS,Tone,Clear,16,4,1,0.561960700026248,1
16240,201,Larynx,Left cTBS,Tone,Clear,17,5,1,0.502471999963745,1
16241,201,Larynx,Left cTBS,Tone,Clear,18,5,1,0.454622899997048,1
16242,201,Larynx,Left cTBS,Tone,Clear,19,2,0,0.775294000050053,1
16243,201,Larynx,Left cTBS,Tone,Clear,20,2,0,0.7652801999938671,1
16244,201,Larynx,Left cTBS,Tone,Clear,21,2,0,0.6901765000075101,1
16245,201,Larynx,Left cTBS,Tone,Clear,22,3,0,0.9390088999643921,1
16246,201,Larynx,Left cTBS,Tone,Clear,23,4,1,0.702403700037394,1
16247,201,Larynx,Left cTBS,Tone,Clear,24,2,0,0.601224399986677,1
16248,201,Larynx,Left cTBS,Tone,Clear,25,3,0,0.692945299961139,1
16249,201,Larynx,Left cTBS,Tone,Clear,26,2,0,0.6587555999867621,1
16250,201,Larynx,Left cTBS,Tone,Clear,27,4,1,0.599369100003969,1
16251,201,Larynx,Left cTBS,Tone,Clear,28,2,0,0.6194346999982371,1
16252,201,Larynx,Left cTBS,Tone,Clear,29,5,1,0.54058609995991,1
16253,201,Larynx,Left cTBS,Tone,Clear,30,3,1,0.630192599957809,1
16254,201,Larynx,Left cTBS,Tone,Clear,31,3,1,0.72195560002001,1
16255,201,Larynx,Left cTBS,Tone,Clear,32,2,0,0.611394400009885,1
16256,201,Larynx,Left cTBS,Tone,Clear,33,3,0,0.707472900045104,1
16257,201,Larynx,Left cTBS,Tone,Clear,34,4,1,0.9157893999945369,1
16258,201,Larynx,Left cTBS,Tone,Clear,35,1,0,0.48519740003394,1
16259,201,Larynx,Left cTBS,Tone,Clear,36,3,0,0.7256860999623309,1
16260,201,Larynx,Left cTBS,Tone,Clear,37,4,1,0.6683712000376539,1
16261,201,Larynx,Left cTBS,Tone,Clear,38,5,1,0.614842100010719,1
16262,201,Larynx,Left cTBS,Tone,Clear,39,3,1,0.7381317000254058,1
16263,201,Larynx,Left cTBS,Tone,Clear,40,4,1,0.5933169000199999,1
16264,201,Larynx,Left cTBS,Tone,Clear,41,1,0,0.651123899966478,1
16265,201,Larynx,Left cTBS,Tone,Clear,42,2,0,0.5609392999904229,1
16266,201,Larynx,Left cTBS,Tone,Clear,43,4,1,0.531281399948057,1
