,subj_idx,group_idx,turn_type,task_type,snr_type,trial_num,step_att,response,rt,step_unatnd
1404,55,Larynx,Right iTBS,Cons,Clear,1,4,1,0.807466399972327,1
1405,55,Larynx,Right iTBS,Cons,Clear,2,2,0,0.7572603999869899,1
1406,55,Larynx,Right iTBS,Cons,Clear,3,2,1,0.8912901999428872,1
1407,55,Larynx,Right iTBS,Cons,Clear,4,3,1,0.652224899968132,1
1408,55,Larynx,Right iTBS,Cons,Clear,5,3,1,0.501825700048357,1
1409,55,Larynx,Right iTBS,Cons,Clear,6,4,1,0.887982000014745,1
1410,55,Larynx,Right iTBS,Cons,Clear,7,1,0,0.535305599914864,1
1411,55,Larynx,Right iTBS,Cons,Clear,8,1,0,0.5860504999291151,1
1412,55,Larynx,Right iTBS,Cons,Clear,9,2,1,0.5125207999954,1
1413,55,Larynx,Right iTBS,Cons,Clear,10,2,1,0.657475299900398,1
1414,55,Larynx,Right iTBS,Cons,Clear,11,4,1,0.6752108000218872,1
1415,55,Larynx,Right iTBS,Cons,Clear,12,3,1,0.561473099980503,1
1416,55,Larynx,Right iTBS,Cons,Clear,13,5,1,0.766131000011228,1
1417,55,Larynx,Right iTBS,Cons,Clear,14,3,1,0.8505349999759351,1
1418,55,Larynx,Right iTBS,Cons,Clear,15,4,1,0.8327552999835458,1
1419,55,Larynx,Right iTBS,Cons,Clear,16,1,0,0.493552600033581,1
1420,55,Larynx,Right iTBS,Cons,Clear,17,1,0,0.5849880999885501,1
1421,55,Larynx,Right iTBS,Cons,Clear,18,4,1,0.5432526000076899,1
1422,55,Larynx,Right iTBS,Cons,Clear,19,5,1,0.7942373000551021,1
1423,55,Larynx,Right iTBS,Cons,Clear,20,2,0,0.689628500025719,1
1424,55,Larynx,Right iTBS,Cons,Clear,21,3,1,0.6402867999859151,1
1425,55,Larynx,Right iTBS,Cons,Clear,22,3,1,0.5064511999953539,1
1426,55,Larynx,Right iTBS,Cons,Clear,23,2,0,0.616070499992929,1
1427,55,Larynx,Right iTBS,Cons,Clear,24,5,1,0.5573213000316171,1
1428,55,Larynx,Right iTBS,Cons,Clear,25,3,1,0.794574600062333,1
1429,55,Larynx,Right iTBS,Cons,Clear,26,3,1,0.6472605000017211,1
1430,55,Larynx,Right iTBS,Cons,Clear,27,5,1,1.04877989995293,1
1431,55,Larynx,Right iTBS,Cons,Clear,28,1,0,1.12062419997528,1
1432,55,Larynx,Right iTBS,Cons,Clear,29,4,1,0.6714414000744,1
1433,55,Larynx,Right iTBS,Cons,Clear,30,5,1,0.837507999967784,1
1434,55,Larynx,Right iTBS,Cons,Clear,31,1,0,1.1274750999873502,1
1435,55,Larynx,Right iTBS,Cons,Clear,32,5,1,0.748760899994522,1
1436,55,Larynx,Right iTBS,Cons,Clear,33,2,0,0.6668990999460219,1
1437,55,Larynx,Right iTBS,Cons,Clear,34,4,1,0.5078793000429871,1
1438,55,Larynx,Right iTBS,Cons,Clear,35,2,0,0.544955599936657,1
1439,55,Larynx,Right iTBS,Cons,Clear,36,4,1,0.525162000092678,1
1440,55,Larynx,Right iTBS,Cons,Clear,37,3,1,0.601279800059274,1
1441,55,Larynx,Right iTBS,Cons,Clear,38,3,1,0.611168700037524,1
1442,55,Larynx,Right iTBS,Cons,Clear,39,3,1,0.805338899954222,1
1443,55,Larynx,Right iTBS,Cons,Clear,40,1,0,0.559450400061905,1
1444,55,Larynx,Right iTBS,Cons,Clear,41,3,1,0.514535000082105,1
1445,55,Larynx,Right iTBS,Cons,Clear,42,4,1,0.7313928999938071,1
1446,55,Larynx,Right iTBS,Cons,Clear,43,4,1,0.8051829999312758,1
1447,55,Larynx,Right iTBS,Cons,Clear,44,1,0,0.5604472999693829,1
1448,55,Larynx,Right iTBS,Cons,Clear,45,4,1,0.8816912000766021,1
1449,55,Larynx,Right iTBS,Cons,Clear,46,1,0,0.69471169996541,1
1450,55,Larynx,Right iTBS,Cons,Clear,47,2,1,2.69939860003069,1
1451,55,Larynx,Right iTBS,Cons,Clear,48,1,0,0.558194600045681,1
1452,55,Larynx,Right iTBS,Cons,Clear,49,1,0,0.593156500020996,1
1453,55,Larynx,Right iTBS,Cons,Clear,50,3,1,0.738619899959303,1
1454,55,Larynx,Right iTBS,Cons,Clear,51,5,1,0.585464400006458,1
1455,55,Larynx,Right iTBS,Cons,Clear,52,4,1,0.5542399000842121,1
1456,55,Larynx,Right iTBS,Cons,Clear,53,4,1,1.4785176999866998,1
1457,55,Larynx,Right iTBS,Cons,Clear,54,5,1,0.873974399990402,1
1458,55,Larynx,Right iTBS,Cons,Clear,55,2,1,0.764095399994403,1
1459,55,Larynx,Right iTBS,Cons,Clear,56,2,0,0.850858199992217,1
1460,55,Larynx,Right iTBS,Cons,Clear,57,5,1,0.6726723000174389,1
1461,55,Larynx,Right iTBS,Cons,Clear,58,3,1,1.43963799998164,1
1462,55,Larynx,Right iTBS,Cons,Clear,59,2,0,0.708851899951696,1
1463,55,Larynx,Right iTBS,Cons,Clear,60,3,1,0.540300900000148,1
1464,55,Larynx,Right iTBS,Cons,Clear,61,2,0,0.5792415000032629,1
1465,55,Larynx,Right iTBS,Cons,Clear,62,3,1,0.514122500084341,1
1466,55,Larynx,Right iTBS,Cons,Clear,63,2,1,0.7381623000837859,1
1467,55,Larynx,Right iTBS,Cons,Clear,64,5,1,0.9186401000479241,1
1468,55,Larynx,Right iTBS,Cons,Clear,65,4,1,1.12634139996953,1
1469,55,Larynx,Right iTBS,Cons,Clear,66,3,0,0.629145699902438,1
1470,55,Larynx,Right iTBS,Cons,Clear,67,4,1,0.518465000088327,1
1471,55,Larynx,Right iTBS,Cons,Clear,68,4,1,0.971261299913749,1
1472,55,Larynx,Right iTBS,Cons,Clear,69,5,1,0.8003829000517729,1
1473,55,Larynx,Right iTBS,Cons,Clear,70,3,1,0.72566460003145,1
1474,55,Larynx,Right iTBS,Cons,Clear,71,2,1,2.71930529992096,1
1475,55,Larynx,Right iTBS,Cons,Clear,72,3,1,0.784970299922861,1
1476,55,Larynx,Right iTBS,Cons,Clear,73,3,1,0.6417914000339809,1
1477,55,Larynx,Right iTBS,Cons,Clear,74,3,0,0.716818599961698,1
1478,55,Larynx,Right iTBS,Cons,Clear,75,3,0,0.621193200000562,1
1479,55,Larynx,Right iTBS,Cons,Clear,76,2,0,0.7483477999921891,1
1480,55,Larynx,Right iTBS,Cons,Clear,77,5,1,0.632873499998823,1
1481,55,Larynx,Right iTBS,Cons,Clear,78,1,0,0.53760349994991,1
1482,55,Larynx,Right iTBS,Cons,Clear,79,1,0,0.556916899979115,1
1483,55,Larynx,Right iTBS,Cons,Clear,80,4,1,0.582978799939156,1
1484,55,Larynx,Right iTBS,Cons,Clear,81,2,1,0.8970158000011,1
1485,55,Larynx,Right iTBS,Cons,Clear,82,3,1,0.81933929992374,1
1486,55,Larynx,Right iTBS,Cons,Clear,83,2,0,0.660958899999969,1
1487,55,Larynx,Right iTBS,Cons,Clear,84,5,1,0.5707863999996329,1
1488,55,Larynx,Right iTBS,Cons,Clear,85,5,1,1.75998240010813,1
1489,55,Larynx,Right iTBS,Cons,Clear,86,5,1,0.5887054000049828,1
1490,55,Larynx,Right iTBS,Cons,Clear,87,4,1,0.610294800018892,1
1491,55,Larynx,Right iTBS,Cons,Clear,88,3,0,1.2651613999623799,1
1492,55,Larynx,Right iTBS,Cons,Clear,89,1,0,0.619526700000279,1
1493,55,Larynx,Right iTBS,Cons,Clear,90,4,1,0.568771600024775,1
1494,55,Larynx,Right iTBS,Cons,Clear,91,3,1,1.20301219995599,1
1495,55,Larynx,Right iTBS,Cons,Clear,92,4,1,0.738119499990717,1
1496,55,Larynx,Right iTBS,Cons,Clear,93,3,1,0.709992000018246,1
1497,55,Larynx,Right iTBS,Cons,Clear,94,2,0,0.678166300058365,1
1498,55,Larynx,Right iTBS,Cons,Clear,95,3,0,0.7276600999757651,1
1499,55,Larynx,Right iTBS,Cons,Clear,96,5,1,1.0166412000544398,1
1500,55,Larynx,Right iTBS,Cons,Clear,97,3,1,1.4416603000136101,1
1501,55,Larynx,Right iTBS,Cons,Clear,98,3,1,0.701882899971679,1
1502,55,Larynx,Right iTBS,Cons,Clear,99,2,0,0.6970433000242341,1
1503,55,Larynx,Right iTBS,Cons,Clear,100,5,1,0.725652100052685,1
1504,55,Larynx,Right iTBS,Cons,Clear,101,4,1,0.7109925000695508,1
1505,55,Larynx,Right iTBS,Cons,Clear,102,3,1,0.672932800021954,1
1506,55,Larynx,Right iTBS,Cons,Clear,103,1,0,0.467713100020774,1
1507,55,Larynx,Right iTBS,Cons,Clear,104,3,1,0.6913219999987629,1
1508,55,Larynx,Right iTBS,Cons,Clear,105,4,1,0.624407899915241,1
1509,55,Larynx,Right iTBS,Cons,Clear,106,4,1,0.5680220000213011,1
1510,55,Larynx,Right iTBS,Cons,Clear,107,1,0,0.542620200081728,1
1511,55,Larynx,Right iTBS,Cons,Clear,108,2,0,0.540265399962664,1
1512,55,Larynx,Right iTBS,Cons,Clear,109,1,0,0.437568200053647,1
1513,55,Larynx,Right iTBS,Cons,Clear,110,3,1,0.540876500075683,1
1514,55,Larynx,Right iTBS,Cons,Clear,111,5,1,0.8915272000012919,1
1515,55,Larynx,Right iTBS,Cons,Clear,112,3,1,0.6952051999978721,1
1516,55,Larynx,Right iTBS,Cons,Clear,113,2,0,0.659192100050859,1
1517,55,Larynx,Right iTBS,Cons,Clear,114,2,0,0.685907199978828,1
1518,55,Larynx,Right iTBS,Cons,Clear,115,2,1,0.6556334999622779,1
1519,55,Larynx,Right iTBS,Cons,Clear,116,4,1,0.702478599967435,1
1520,55,Larynx,Right iTBS,Cons,Clear,117,1,0,0.49449860001914203,1
1521,55,Larynx,Right iTBS,Cons,Clear,118,4,1,0.9429997999686751,1
1522,55,Larynx,Right iTBS,Cons,Clear,119,4,1,0.7188516999594871,1
1523,55,Larynx,Right iTBS,Cons,Clear,120,3,0,0.711712599964812,1
1524,55,Larynx,Right iTBS,Cons,Clear,121,3,0,1.02891780005302,1
1525,55,Larynx,Right iTBS,Cons,Clear,122,4,1,0.6727696999441829,1
1526,55,Larynx,Right iTBS,Cons,Clear,123,2,0,0.795211900025606,1
1527,55,Larynx,Right iTBS,Cons,Clear,124,4,1,0.565109099959955,1
1528,55,Larynx,Right iTBS,Cons,Clear,125,2,0,0.7527795999776571,1
1529,55,Larynx,Right iTBS,Cons,Clear,126,3,1,0.7335385000333191,1
1530,55,Larynx,Right iTBS,Cons,Clear,127,1,0,0.661197800072841,1
1531,55,Larynx,Right iTBS,Cons,Clear,128,2,1,0.701930699986406,1
1532,55,Larynx,Right iTBS,Cons,Clear,129,4,1,0.823086800053716,1
1533,55,Larynx,Right iTBS,Cons,Clear,130,2,0,0.6921864000614729,1
1534,55,Larynx,Right iTBS,Cons,Clear,131,4,1,0.797791499993764,1
1535,55,Larynx,Right iTBS,Cons,Clear,132,3,1,0.7781997999409209,1
1536,55,Larynx,Right iTBS,Cons,Clear,133,1,0,0.826297500054352,1
1537,55,Larynx,Right iTBS,Cons,Clear,134,3,0,1.03684140008409,1
1538,55,Larynx,Right iTBS,Cons,Clear,135,5,1,0.589561200002208,1
1539,55,Larynx,Right iTBS,Cons,Clear,136,3,1,0.6052509000292049,1
1540,55,Larynx,Right iTBS,Cons,Clear,137,3,1,0.7568186999997121,1
1541,55,Larynx,Right iTBS,Cons,Clear,138,1,0,0.5311982000712311,1
1542,55,Larynx,Right iTBS,Cons,Clear,139,1,0,0.762229999992996,1
1543,55,Larynx,Right iTBS,Cons,Clear,140,2,1,0.653569600079209,1
1544,55,Larynx,Right iTBS,Cons,Clear,141,5,1,2.18007320002653,1
1545,55,Larynx,Right iTBS,Cons,Clear,142,5,1,0.72194820002187,1
1546,55,Larynx,Right iTBS,Cons,Clear,143,1,0,0.577968800091185,1
1547,55,Larynx,Right iTBS,Cons,Clear,144,3,1,0.6041571999667211,1
1548,55,Larynx,Right iTBS,Cons,Clear,145,2,0,0.5778073000255971,1
1549,55,Larynx,Right iTBS,Cons,Clear,146,1,0,0.55042699992191,1
1550,55,Larynx,Right iTBS,Cons,Clear,147,4,1,0.950481499894522,1
1551,55,Larynx,Right iTBS,Cons,Clear,148,3,1,0.7007621999364351,1
1552,55,Larynx,Right iTBS,Cons,Clear,149,2,1,0.8200088000157851,1
1553,55,Larynx,Right iTBS,Cons,Clear,150,5,1,0.7334736000048001,1
1554,55,Larynx,Right iTBS,Cons,Clear,151,5,0,0.8081022000405942,1
1555,55,Larynx,Right iTBS,Cons,Clear,152,4,1,0.64714500005357,1
1556,55,Larynx,Right iTBS,Cons,Clear,153,5,1,0.9436062000459059,1
1557,55,Larynx,Right iTBS,Cons,Clear,154,2,0,0.5974306000862271,1
1558,55,Larynx,Right iTBS,Cons,Clear,155,3,1,0.44263339997269197,1
1559,55,Larynx,Right iTBS,Cons,Clear,156,3,1,0.5769567000679671,1
2652,55,Larynx,Sham,Cons,Clear,1,4,1,0.934042100096121,1
2653,55,Larynx,Sham,Cons,Clear,2,3,0,0.710423299926333,1
2654,55,Larynx,Sham,Cons,Clear,3,4,1,0.705889699980617,1
2655,55,Larynx,Sham,Cons,Clear,4,5,1,0.540295299957506,1
2656,55,Larynx,Sham,Cons,Clear,5,2,0,0.9196360999485479,1
2657,55,Larynx,Sham,Cons,Clear,6,1,0,0.6825928000034761,1
2658,55,Larynx,Sham,Cons,Clear,7,2,1,0.578115500044078,1
2659,55,Larynx,Sham,Cons,Clear,8,4,1,0.49368079996202097,1
2660,55,Larynx,Sham,Cons,Clear,9,1,0,0.50125760002993,1
2661,55,Larynx,Sham,Cons,Clear,10,3,1,0.46261219994630703,1
2662,55,Larynx,Sham,Cons,Clear,11,4,1,0.44901630003005294,1
2663,55,Larynx,Sham,Cons,Clear,12,1,0,0.457939499989152,1
2664,55,Larynx,Sham,Cons,Clear,13,5,1,0.412294800044037,1
2665,55,Larynx,Sham,Cons,Clear,14,3,1,0.412832199945115,1
2666,55,Larynx,Sham,Cons,Clear,15,3,1,0.400856700027362,1
2667,55,Larynx,Sham,Cons,Clear,16,5,1,0.488825099891983,1
2668,55,Larynx,Sham,Cons,Clear,17,2,0,1.04162819997873,1
2669,55,Larynx,Sham,Cons,Clear,18,2,1,0.473968900041655,1
2670,55,Larynx,Sham,Cons,Clear,19,3,1,0.37195810000412205,1
2671,55,Larynx,Sham,Cons,Clear,20,4,1,0.528839699923992,1
2672,55,Larynx,Sham,Cons,Clear,21,3,1,0.48345010005869,1
2673,55,Larynx,Sham,Cons,Clear,22,4,1,0.539515699958429,1
2674,55,Larynx,Sham,Cons,Clear,23,1,1,1.21700820000842,1
2675,55,Larynx,Sham,Cons,Clear,24,3,1,0.7850910000270229,1
2676,55,Larynx,Sham,Cons,Clear,25,2,0,0.8673005000455309,1
2677,55,Larynx,Sham,Cons,Clear,26,3,1,0.49269039998762304,1
2678,55,Larynx,Sham,Cons,Clear,27,4,1,0.529948699986562,1
2679,55,Larynx,Sham,Cons,Clear,28,5,1,0.5745814999099821,1
2680,55,Larynx,Sham,Cons,Clear,29,1,0,0.472347900038585,1
2681,55,Larynx,Sham,Cons,Clear,30,2,0,0.9732041000388559,1
2682,55,Larynx,Sham,Cons,Clear,31,3,1,0.434497099951841,1
2683,55,Larynx,Sham,Cons,Clear,32,4,1,0.521754699992016,1
2684,55,Larynx,Sham,Cons,Clear,33,5,1,0.55417929997202,1
2685,55,Larynx,Sham,Cons,Clear,34,3,1,0.5580500999931249,1
2686,55,Larynx,Sham,Cons,Clear,35,2,0,0.958747299970128,1
2687,55,Larynx,Sham,Cons,Clear,36,1,0,0.8038388999411841,1
2688,55,Larynx,Sham,Cons,Clear,37,2,1,0.752397899981588,1
2689,55,Larynx,Sham,Cons,Clear,38,3,1,0.696927699958906,1
2690,55,Larynx,Sham,Cons,Clear,39,5,1,0.638439400005154,1
2691,55,Larynx,Sham,Cons,Clear,40,3,0,0.665475399931893,1
2692,55,Larynx,Sham,Cons,Clear,41,1,0,0.804136399994604,1
2693,55,Larynx,Sham,Cons,Clear,42,1,0,0.8864494999870659,1
2694,55,Larynx,Sham,Cons,Clear,43,2,0,0.716498899972066,1
2695,55,Larynx,Sham,Cons,Clear,44,2,1,0.8734404999995601,1
2696,55,Larynx,Sham,Cons,Clear,45,2,1,1.56464120000601,1
2697,55,Larynx,Sham,Cons,Clear,46,3,1,1.4582583999726901,1
2698,55,Larynx,Sham,Cons,Clear,47,5,1,0.69781350006815,1
2699,55,Larynx,Sham,Cons,Clear,48,5,1,0.7539287999970842,1
2700,55,Larynx,Sham,Cons,Clear,49,1,0,0.556172900018282,1
2701,55,Larynx,Sham,Cons,Clear,50,1,0,0.539429800002836,1
2702,55,Larynx,Sham,Cons,Clear,51,3,1,0.5126088999677451,1
2703,55,Larynx,Sham,Cons,Clear,52,4,1,0.5100682999473071,1
2704,55,Larynx,Sham,Cons,Clear,53,4,1,0.57039539993275,1
2705,55,Larynx,Sham,Cons,Clear,54,5,1,0.5973072999622671,1
2706,55,Larynx,Sham,Cons,Clear,55,5,1,0.543352500069886,1
2707,55,Larynx,Sham,Cons,Clear,56,3,1,1.17996950005181,1
2708,55,Larynx,Sham,Cons,Clear,57,4,1,0.667081900057383,1
2709,55,Larynx,Sham,Cons,Clear,58,3,1,0.553447399986908,1
2710,55,Larynx,Sham,Cons,Clear,59,2,0,0.563202399993315,1
2711,55,Larynx,Sham,Cons,Clear,60,2,0,0.6657547999639061,1
2712,55,Larynx,Sham,Cons,Clear,61,3,1,0.5075607999460771,1
2713,55,Larynx,Sham,Cons,Clear,62,4,1,0.530659900046885,1
2714,55,Larynx,Sham,Cons,Clear,63,3,1,0.875839100102894,1
2715,55,Larynx,Sham,Cons,Clear,64,4,1,0.598167099989951,1
2716,55,Larynx,Sham,Cons,Clear,65,2,0,1.03669149999041,1
2717,55,Larynx,Sham,Cons,Clear,66,3,0,1.1199778000591298,1
2718,55,Larynx,Sham,Cons,Clear,67,3,1,1.98254430002999,1
2719,55,Larynx,Sham,Cons,Clear,68,5,1,0.583603100036271,1
2720,55,Larynx,Sham,Cons,Clear,69,4,1,0.612070000031963,1
2721,55,Larynx,Sham,Cons,Clear,70,5,1,0.518571099964902,1
2722,55,Larynx,Sham,Cons,Clear,71,2,0,0.589270600001328,1
2723,55,Larynx,Sham,Cons,Clear,72,4,1,0.447820200002752,1
2724,55,Larynx,Sham,Cons,Clear,73,2,0,0.8609258999349549,1
2725,55,Larynx,Sham,Cons,Clear,74,4,1,0.75710839999374,1
2726,55,Larynx,Sham,Cons,Clear,75,1,0,0.587426299927756,1
2727,55,Larynx,Sham,Cons,Clear,76,3,1,0.6245000999188051,1
2728,55,Larynx,Sham,Cons,Clear,77,1,0,0.5144118999596691,1
2729,55,Larynx,Sham,Cons,Clear,78,3,1,0.586247499915771,1
2730,55,Larynx,Sham,Cons,Clear,79,5,1,0.634433800005354,1
2731,55,Larynx,Sham,Cons,Clear,80,2,1,0.983725999947637,1
2732,55,Larynx,Sham,Cons,Clear,81,4,1,0.565881899907254,1
2733,55,Larynx,Sham,Cons,Clear,82,3,1,0.6869611999718471,1
2734,55,Larynx,Sham,Cons,Clear,83,5,1,0.9323210000293329,1
2735,55,Larynx,Sham,Cons,Clear,84,1,0,1.01071979990229,1
2736,55,Larynx,Sham,Cons,Clear,85,4,1,0.6462203999981279,1
2737,55,Larynx,Sham,Cons,Clear,86,5,1,0.616794099914841,1
2738,55,Larynx,Sham,Cons,Clear,87,2,0,0.617599799996242,1
2739,55,Larynx,Sham,Cons,Clear,88,5,1,0.517924600047991,1
2740,55,Larynx,Sham,Cons,Clear,89,5,1,1.09142780001275,1
2741,55,Larynx,Sham,Cons,Clear,90,3,1,0.998555000056513,1
2742,55,Larynx,Sham,Cons,Clear,91,4,1,0.720264800009318,1
2743,55,Larynx,Sham,Cons,Clear,92,3,1,0.6469617999391629,1
2744,55,Larynx,Sham,Cons,Clear,93,3,1,0.596635499969125,1
2745,55,Larynx,Sham,Cons,Clear,94,4,1,2.31250889995135,1
2746,55,Larynx,Sham,Cons,Clear,95,1,0,0.549397900002077,1
2747,55,Larynx,Sham,Cons,Clear,96,1,0,0.8234475000062959,1
2748,55,Larynx,Sham,Cons,Clear,97,4,1,1.1256134000141202,1
2749,55,Larynx,Sham,Cons,Clear,98,2,0,1.0388919999823,1
2750,55,Larynx,Sham,Cons,Clear,99,2,1,0.991586300078779,1
2751,55,Larynx,Sham,Cons,Clear,100,3,1,0.832184799946845,1
2752,55,Larynx,Sham,Cons,Clear,101,3,1,0.674170100013725,1
2753,55,Larynx,Sham,Cons,Clear,102,1,0,0.6098851999267939,1
2754,55,Larynx,Sham,Cons,Clear,103,4,1,0.682268599979579,1
2755,55,Larynx,Sham,Cons,Clear,104,3,1,1.28205010003876,1
2756,55,Larynx,Sham,Cons,Clear,105,2,0,1.01399539993145,1
2757,55,Larynx,Sham,Cons,Clear,106,2,1,1.19507280003745,1
2758,55,Larynx,Sham,Cons,Clear,107,4,1,0.750296999933198,1
2759,55,Larynx,Sham,Cons,Clear,108,3,1,0.673163900035433,1
2760,55,Larynx,Sham,Cons,Clear,109,4,1,0.8813494999194521,1
2761,55,Larynx,Sham,Cons,Clear,110,1,0,0.596333499997854,1
2762,55,Larynx,Sham,Cons,Clear,111,1,0,0.537975999992341,1
2763,55,Larynx,Sham,Cons,Clear,112,2,0,0.63407729996834,1
2764,55,Larynx,Sham,Cons,Clear,113,2,1,1.0127371998969499,1
2765,55,Larynx,Sham,Cons,Clear,114,3,1,1.0349351000040798,1
2766,55,Larynx,Sham,Cons,Clear,115,3,1,0.7054344998905441,1
2767,55,Larynx,Sham,Cons,Clear,116,5,1,0.68861630000174,1
2768,55,Larynx,Sham,Cons,Clear,117,3,1,0.748984400066547,1
2769,55,Larynx,Sham,Cons,Clear,118,5,1,0.6910728000802919,1
2770,55,Larynx,Sham,Cons,Clear,119,3,1,0.630544800078496,1
2771,55,Larynx,Sham,Cons,Clear,120,1,0,0.566733799991198,1
2772,55,Larynx,Sham,Cons,Clear,121,2,0,0.7773271000478421,1
2773,55,Larynx,Sham,Cons,Clear,122,3,1,1.02154910005629,1
2774,55,Larynx,Sham,Cons,Clear,123,4,1,0.657522000023164,1
2775,55,Larynx,Sham,Cons,Clear,124,3,1,0.688550400082022,1
2776,55,Larynx,Sham,Cons,Clear,125,4,1,0.532777699991129,1
2777,55,Larynx,Sham,Cons,Clear,126,3,1,0.7433516000164669,1
2778,55,Larynx,Sham,Cons,Clear,127,3,1,0.631413799943402,1
2779,55,Larynx,Sham,Cons,Clear,128,5,1,0.805384799954481,1
2780,55,Larynx,Sham,Cons,Clear,129,2,0,0.585150099941529,1
2781,55,Larynx,Sham,Cons,Clear,130,4,1,0.6267780999187379,1
2782,55,Larynx,Sham,Cons,Clear,131,3,1,0.8556218999437991,1
2783,55,Larynx,Sham,Cons,Clear,132,1,0,0.79002020007465,1
2784,55,Larynx,Sham,Cons,Clear,133,2,0,0.8613106000702829,1
2785,55,Larynx,Sham,Cons,Clear,134,1,0,0.709599800058641,1
2786,55,Larynx,Sham,Cons,Clear,135,4,1,0.559192699962296,1
2787,55,Larynx,Sham,Cons,Clear,136,2,0,0.7048461000667879,1
2788,55,Larynx,Sham,Cons,Clear,137,2,0,1.0829685999779002,1
2789,55,Larynx,Sham,Cons,Clear,138,1,0,0.707380799925886,1
2790,55,Larynx,Sham,Cons,Clear,139,4,1,1.01547589991242,1
2791,55,Larynx,Sham,Cons,Clear,140,3,0,1.4180633999640102,1
2792,55,Larynx,Sham,Cons,Clear,141,5,1,1.19451719999779,1
2793,55,Larynx,Sham,Cons,Clear,142,2,0,0.957568400073797,1
2794,55,Larynx,Sham,Cons,Clear,143,3,1,0.7927589000901211,1
2795,55,Larynx,Sham,Cons,Clear,144,3,1,0.829562400002033,1
2796,55,Larynx,Sham,Cons,Clear,145,5,1,0.7888248000526801,1
2797,55,Larynx,Sham,Cons,Clear,146,1,0,0.9875916000455619,1
2798,55,Larynx,Sham,Cons,Clear,147,5,1,1.0835322999628298,1
2799,55,Larynx,Sham,Cons,Clear,148,4,1,0.6853675000602379,1
2800,55,Larynx,Sham,Cons,Clear,149,3,1,0.6188969999784599,1
2801,55,Larynx,Sham,Cons,Clear,150,4,1,0.862097200006247,1
2802,55,Larynx,Sham,Cons,Clear,151,2,0,0.5490051000379029,1
2803,55,Larynx,Sham,Cons,Clear,152,1,0,0.534602500032634,1
2804,55,Larynx,Sham,Cons,Clear,153,3,1,3.14731749997009,1
2805,55,Larynx,Sham,Cons,Clear,154,2,0,0.5928573999553921,1
2806,55,Larynx,Sham,Cons,Clear,155,4,1,0.627199400099926,1
2807,55,Larynx,Sham,Cons,Clear,156,5,1,0.500713000074029,1
4524,104,Larynx,Right iTBS,Cons,Clear,1,3,1,0.625245200004429,1
4525,104,Larynx,Right iTBS,Cons,Clear,2,4,1,0.38681880000513,1
4526,104,Larynx,Right iTBS,Cons,Clear,3,2,0,0.571814500028268,1
4527,104,Larynx,Right iTBS,Cons,Clear,4,5,1,0.408726800000295,1
4528,104,Larynx,Right iTBS,Cons,Clear,5,2,0,0.49126789998263104,1
4529,104,Larynx,Right iTBS,Cons,Clear,6,3,1,0.388869400019757,1
4530,104,Larynx,Right iTBS,Cons,Clear,7,2,1,0.429410300101154,1
4531,104,Larynx,Right iTBS,Cons,Clear,8,5,1,0.405255599995144,1
4532,104,Larynx,Right iTBS,Cons,Clear,9,1,0,0.514672699966468,1
4533,104,Larynx,Right iTBS,Cons,Clear,10,3,1,0.449652099981904,1
4534,104,Larynx,Right iTBS,Cons,Clear,11,4,1,0.46023719990626,1
4535,104,Larynx,Right iTBS,Cons,Clear,12,3,1,0.44021659996360496,1
4536,104,Larynx,Right iTBS,Cons,Clear,13,5,1,0.532575899967924,1
4537,104,Larynx,Right iTBS,Cons,Clear,14,4,1,0.46219029999338107,1
4538,104,Larynx,Right iTBS,Cons,Clear,15,4,1,0.38464190007653104,1
4539,104,Larynx,Right iTBS,Cons,Clear,16,2,0,0.551944999955595,1
4540,104,Larynx,Right iTBS,Cons,Clear,17,4,1,0.439390700077638,1
4541,104,Larynx,Right iTBS,Cons,Clear,18,3,1,0.4455804000608621,1
4542,104,Larynx,Right iTBS,Cons,Clear,19,1,0,0.5220627000089729,1
4543,104,Larynx,Right iTBS,Cons,Clear,20,2,0,0.531123599968851,1
4544,104,Larynx,Right iTBS,Cons,Clear,21,3,1,0.40302969992626503,1
4545,104,Larynx,Right iTBS,Cons,Clear,22,5,1,0.398159099975601,1
4546,104,Larynx,Right iTBS,Cons,Clear,23,4,1,0.400894299964421,1
4547,104,Larynx,Right iTBS,Cons,Clear,24,1,0,0.463645200012252,1
4548,104,Larynx,Right iTBS,Cons,Clear,25,5,1,0.409084099926986,1
4549,104,Larynx,Right iTBS,Cons,Clear,26,2,0,0.5683277000207451,1
4550,104,Larynx,Right iTBS,Cons,Clear,27,3,1,0.47013869998045293,1
4551,104,Larynx,Right iTBS,Cons,Clear,28,1,0,0.398392000002787,1
4552,104,Larynx,Right iTBS,Cons,Clear,29,4,1,0.5072383999358859,1
4553,104,Larynx,Right iTBS,Cons,Clear,30,1,0,0.46740620001219196,1
4554,104,Larynx,Right iTBS,Cons,Clear,31,1,0,0.47872160002589204,1
4555,104,Larynx,Right iTBS,Cons,Clear,32,3,1,0.40692229999695,1
4556,104,Larynx,Right iTBS,Cons,Clear,33,5,1,0.41042590001598,1
4557,104,Larynx,Right iTBS,Cons,Clear,34,2,0,0.492453600047156,1
4558,104,Larynx,Right iTBS,Cons,Clear,35,4,1,0.5016291999490929,1
4559,104,Larynx,Right iTBS,Cons,Clear,36,2,0,0.6600330999353899,1
4560,104,Larynx,Right iTBS,Cons,Clear,37,3,1,0.44642100005876295,1
4561,104,Larynx,Right iTBS,Cons,Clear,38,3,1,0.37330340000335105,1
4562,104,Larynx,Right iTBS,Cons,Clear,39,3,1,0.430167399928905,1
4563,104,Larynx,Right iTBS,Cons,Clear,40,2,0,0.302168399910443,1
4564,104,Larynx,Right iTBS,Cons,Clear,41,4,1,0.44081729999743396,1
4565,104,Larynx,Right iTBS,Cons,Clear,42,4,1,0.35521840001456395,1
4566,104,Larynx,Right iTBS,Cons,Clear,43,2,1,0.43738520005717896,1
4567,104,Larynx,Right iTBS,Cons,Clear,44,3,1,0.547148600104265,1
4568,104,Larynx,Right iTBS,Cons,Clear,45,3,0,0.5026929000159729,1
4569,104,Larynx,Right iTBS,Cons,Clear,46,1,0,0.566138299996965,1
4570,104,Larynx,Right iTBS,Cons,Clear,47,4,1,0.42605620005633704,1
4571,104,Larynx,Right iTBS,Cons,Clear,48,3,1,0.501267899991944,1
4572,104,Larynx,Right iTBS,Cons,Clear,49,2,0,0.508343199966475,1
4573,104,Larynx,Right iTBS,Cons,Clear,50,5,1,0.514794700080529,1
4574,104,Larynx,Right iTBS,Cons,Clear,51,1,0,0.434412000002339,1
4575,104,Larynx,Right iTBS,Cons,Clear,52,5,1,0.3809684999287129,1
4576,104,Larynx,Right iTBS,Cons,Clear,53,4,1,0.530056099989451,1
4577,104,Larynx,Right iTBS,Cons,Clear,54,3,0,0.428456099936739,1
4578,104,Larynx,Right iTBS,Cons,Clear,55,1,0,0.510171399917454,1
4579,104,Larynx,Right iTBS,Cons,Clear,56,5,1,0.489853899925947,1
4580,104,Larynx,Right iTBS,Cons,Clear,57,3,0,0.6621053999988361,1
4581,104,Larynx,Right iTBS,Cons,Clear,58,4,1,0.51757909997832,1
4582,104,Larynx,Right iTBS,Cons,Clear,59,3,1,0.423255300032906,1
4583,104,Larynx,Right iTBS,Cons,Clear,60,2,0,0.504361699917354,1
4584,104,Larynx,Right iTBS,Cons,Clear,61,3,1,0.752929600072093,1
4585,104,Larynx,Right iTBS,Cons,Clear,62,3,1,0.34869459993206003,1
4586,104,Larynx,Right iTBS,Cons,Clear,63,2,0,0.5313751000212511,1
4587,104,Larynx,Right iTBS,Cons,Clear,64,5,1,0.37070229998789705,1
4588,104,Larynx,Right iTBS,Cons,Clear,65,5,1,0.35581660002935706,1
4589,104,Larynx,Right iTBS,Cons,Clear,66,1,0,0.44744449993595503,1
4590,104,Larynx,Right iTBS,Cons,Clear,67,3,1,0.36186169995926293,1
4591,104,Larynx,Right iTBS,Cons,Clear,68,4,0,0.43398730002809294,1
4592,104,Larynx,Right iTBS,Cons,Clear,69,2,0,0.471949700033292,1
4593,104,Larynx,Right iTBS,Cons,Clear,70,3,1,0.559051300049759,1
4594,104,Larynx,Right iTBS,Cons,Clear,71,3,1,0.502000499982387,1
4595,104,Larynx,Right iTBS,Cons,Clear,72,2,1,0.371924599981867,1
4596,104,Larynx,Right iTBS,Cons,Clear,73,1,0,0.37642260000575295,1
4597,104,Larynx,Right iTBS,Cons,Clear,74,4,1,0.49002040002960706,1
4598,104,Larynx,Right iTBS,Cons,Clear,75,5,1,0.48831089993473104,1
4599,104,Larynx,Right iTBS,Cons,Clear,76,1,0,0.369504899950698,1
4600,104,Larynx,Right iTBS,Cons,Clear,77,2,0,0.49038189998827897,1
4601,104,Larynx,Right iTBS,Cons,Clear,78,4,1,0.50180830003228,1
4602,104,Larynx,Right iTBS,Cons,Clear,79,3,0,0.5153734999476,1
4603,104,Larynx,Right iTBS,Cons,Clear,80,4,1,0.451437499956228,1
4604,104,Larynx,Right iTBS,Cons,Clear,81,2,0,0.539811900001951,1
4605,104,Larynx,Right iTBS,Cons,Clear,82,1,0,0.5068761999718839,1
4606,104,Larynx,Right iTBS,Cons,Clear,83,1,0,0.5453269999707121,1
4607,104,Larynx,Right iTBS,Cons,Clear,84,3,0,0.42419859999790793,1
4608,104,Larynx,Right iTBS,Cons,Clear,85,3,1,0.40378749999217695,1
4609,104,Larynx,Right iTBS,Cons,Clear,86,5,1,0.590929700061679,1
4610,104,Larynx,Right iTBS,Cons,Clear,87,5,1,0.470959299942479,1
4611,104,Larynx,Right iTBS,Cons,Clear,88,3,1,0.49579259997699393,1
4612,104,Larynx,Right iTBS,Cons,Clear,89,3,1,0.40323709999211105,1
4613,104,Larynx,Right iTBS,Cons,Clear,90,3,1,0.437516600009985,1
4614,104,Larynx,Right iTBS,Cons,Clear,91,4,1,0.519205699907616,1
4615,104,Larynx,Right iTBS,Cons,Clear,92,2,0,0.603428200003691,1
4616,104,Larynx,Right iTBS,Cons,Clear,93,3,1,0.48289390001446003,1
4617,104,Larynx,Right iTBS,Cons,Clear,94,4,1,0.49811569997109495,1
4618,104,Larynx,Right iTBS,Cons,Clear,95,5,1,0.45136679999996,1
4619,104,Larynx,Right iTBS,Cons,Clear,96,4,1,0.42419469996821096,1
4620,104,Larynx,Right iTBS,Cons,Clear,97,5,1,0.47987959999591107,1
4621,104,Larynx,Right iTBS,Cons,Clear,98,3,0,0.466533800004981,1
4622,104,Larynx,Right iTBS,Cons,Clear,99,2,1,0.35273720009718107,1
4623,104,Larynx,Right iTBS,Cons,Clear,100,3,1,0.511006999993697,1
4624,104,Larynx,Right iTBS,Cons,Clear,101,4,1,0.579848599969409,1
4625,104,Larynx,Right iTBS,Cons,Clear,102,1,0,0.446451800060458,1
4626,104,Larynx,Right iTBS,Cons,Clear,103,1,0,0.42694229993503496,1
4627,104,Larynx,Right iTBS,Cons,Clear,104,2,0,0.508326500072144,1
4628,104,Larynx,Right iTBS,Cons,Clear,105,2,0,0.43517350009642497,1
4629,104,Larynx,Right iTBS,Cons,Clear,106,5,1,0.45816889998968696,1
4630,104,Larynx,Right iTBS,Cons,Clear,107,4,1,0.46987409994471796,1
4631,104,Larynx,Right iTBS,Cons,Clear,108,2,1,0.439201300032437,1
4632,104,Larynx,Right iTBS,Cons,Clear,109,4,1,0.6404662000713871,1
4633,104,Larynx,Right iTBS,Cons,Clear,110,2,0,0.6074106000596661,1
4634,104,Larynx,Right iTBS,Cons,Clear,111,3,1,0.455643299967051,1
4635,104,Larynx,Right iTBS,Cons,Clear,112,1,0,0.44056090002413795,1
4636,104,Larynx,Right iTBS,Cons,Clear,113,1,0,0.40114859992172597,1
4637,104,Larynx,Right iTBS,Cons,Clear,114,3,0,0.46383339993190004,1
4638,104,Larynx,Right iTBS,Cons,Clear,115,4,1,0.47449349996168205,1
4639,104,Larynx,Right iTBS,Cons,Clear,116,2,0,0.503232999937609,1
4640,104,Larynx,Right iTBS,Cons,Clear,117,5,1,0.471129999961704,1
4641,104,Larynx,Right iTBS,Cons,Clear,118,3,0,0.608335299999453,1
4642,104,Larynx,Right iTBS,Cons,Clear,119,3,1,0.41001549991779,1
4643,104,Larynx,Right iTBS,Cons,Clear,120,2,0,0.509178399923258,1
4644,104,Larynx,Right iTBS,Cons,Clear,121,1,0,0.3650687999324871,1
4645,104,Larynx,Right iTBS,Cons,Clear,122,3,1,0.53214550006669,1
4646,104,Larynx,Right iTBS,Cons,Clear,123,3,0,0.6638795000035319,1
4647,104,Larynx,Right iTBS,Cons,Clear,124,2,0,0.42622679995838597,1
4648,104,Larynx,Right iTBS,Cons,Clear,125,1,0,0.444260800024495,1
4649,104,Larynx,Right iTBS,Cons,Clear,126,4,1,0.633550000027753,1
4650,104,Larynx,Right iTBS,Cons,Clear,127,4,1,0.48240189999342004,1
4651,104,Larynx,Right iTBS,Cons,Clear,128,5,1,0.424448500038125,1
4652,104,Larynx,Right iTBS,Cons,Clear,129,5,1,0.429445000016131,1
4653,104,Larynx,Right iTBS,Cons,Clear,130,5,1,0.406002499978058,1
4654,104,Larynx,Right iTBS,Cons,Clear,131,3,1,0.428104799939319,1
4655,104,Larynx,Right iTBS,Cons,Clear,132,1,0,0.40402729995548703,1
4656,104,Larynx,Right iTBS,Cons,Clear,133,1,0,0.38312909996602706,1
4657,104,Larynx,Right iTBS,Cons,Clear,134,2,0,0.48071709997020706,1
4658,104,Larynx,Right iTBS,Cons,Clear,135,2,1,0.4246601000195371,1
4659,104,Larynx,Right iTBS,Cons,Clear,136,2,0,0.47021509998012295,1
4660,104,Larynx,Right iTBS,Cons,Clear,137,5,1,0.5869383000535889,1
4661,104,Larynx,Right iTBS,Cons,Clear,138,5,1,0.50108000007458,1
4662,104,Larynx,Right iTBS,Cons,Clear,139,4,1,0.37324580003041796,1
4663,104,Larynx,Right iTBS,Cons,Clear,140,4,1,0.352505800081417,1
4664,104,Larynx,Right iTBS,Cons,Clear,141,2,0,0.471018800046295,1
4665,104,Larynx,Right iTBS,Cons,Clear,142,2,0,0.527166600106284,1
4666,104,Larynx,Right iTBS,Cons,Clear,143,4,1,0.39487670001108205,1
4667,104,Larynx,Right iTBS,Cons,Clear,144,5,1,0.469421299989335,1
4668,104,Larynx,Right iTBS,Cons,Clear,145,3,0,0.526663399999961,1
4669,104,Larynx,Right iTBS,Cons,Clear,146,3,1,0.395168700022623,1
4670,104,Larynx,Right iTBS,Cons,Clear,147,3,1,0.35705260001122996,1
4671,104,Larynx,Right iTBS,Cons,Clear,148,3,1,0.481377299991436,1
4672,104,Larynx,Right iTBS,Cons,Clear,149,3,1,0.49446880002506105,1
4673,104,Larynx,Right iTBS,Cons,Clear,150,4,1,0.493756499956362,1
4674,104,Larynx,Right iTBS,Cons,Clear,151,4,1,0.40390829998068495,1
4675,104,Larynx,Right iTBS,Cons,Clear,152,4,1,0.458702299976721,1
4676,104,Larynx,Right iTBS,Cons,Clear,153,1,0,0.49778840004000796,1
4677,104,Larynx,Right iTBS,Cons,Clear,154,3,0,0.5505403999704871,1
4678,104,Larynx,Right iTBS,Cons,Clear,155,1,0,0.58030879998114,1
4679,104,Larynx,Right iTBS,Cons,Clear,156,2,1,0.46097350004129106,1
5772,104,Larynx,Sham,Cons,Clear,1,5,1,0.54217620001873,1
5773,104,Larynx,Sham,Cons,Clear,2,4,1,0.473736500018276,1
5774,104,Larynx,Sham,Cons,Clear,3,5,1,0.565381099993829,1
5775,104,Larynx,Sham,Cons,Clear,4,1,0,0.48616480000782797,1
5776,104,Larynx,Sham,Cons,Clear,5,3,1,0.5061584000359289,1
5777,104,Larynx,Sham,Cons,Clear,6,2,0,0.4990793000324629,1
5778,104,Larynx,Sham,Cons,Clear,7,3,1,0.533470900030807,1
5779,104,Larynx,Sham,Cons,Clear,8,5,1,0.505453899968416,1
5780,104,Larynx,Sham,Cons,Clear,9,2,0,0.522840399993584,1
5781,104,Larynx,Sham,Cons,Clear,10,4,1,0.513250000018161,1
5782,104,Larynx,Sham,Cons,Clear,11,5,1,0.4591902999673039,1
5783,104,Larynx,Sham,Cons,Clear,12,2,0,0.630246600019746,1
5784,104,Larynx,Sham,Cons,Clear,13,2,1,0.5153674000175671,1
5785,104,Larynx,Sham,Cons,Clear,14,4,1,0.472850700025447,1
5786,104,Larynx,Sham,Cons,Clear,15,1,0,0.49339359998703003,1
5787,104,Larynx,Sham,Cons,Clear,16,3,1,0.527748099993914,1
5788,104,Larynx,Sham,Cons,Clear,17,3,1,0.5583371000248011,1
5789,104,Larynx,Sham,Cons,Clear,18,3,1,0.46111649996601,1
5790,104,Larynx,Sham,Cons,Clear,19,5,1,0.5770577000221241,1
5791,104,Larynx,Sham,Cons,Clear,20,2,0,0.525021100009326,1
5792,104,Larynx,Sham,Cons,Clear,21,1,0,0.619894800009206,1
5793,104,Larynx,Sham,Cons,Clear,22,2,0,0.647787900001276,1
5794,104,Larynx,Sham,Cons,Clear,23,4,1,0.527280100039206,1
5795,104,Larynx,Sham,Cons,Clear,24,3,1,0.44842109997989604,1
5796,104,Larynx,Sham,Cons,Clear,25,4,1,0.488744899979793,1
5797,104,Larynx,Sham,Cons,Clear,26,1,1,0.527383700013161,1
5798,104,Larynx,Sham,Cons,Clear,27,5,1,0.514945700007956,1
5799,104,Larynx,Sham,Cons,Clear,28,1,0,0.44627189997117994,1
5800,104,Larynx,Sham,Cons,Clear,29,2,0,0.6161940000019971,1
5801,104,Larynx,Sham,Cons,Clear,30,3,1,0.455433700000867,1
5802,104,Larynx,Sham,Cons,Clear,31,4,1,0.5481247999705371,1
5803,104,Larynx,Sham,Cons,Clear,32,3,1,0.485210099956021,1
5804,104,Larynx,Sham,Cons,Clear,33,1,0,0.513042300008237,1
5805,104,Larynx,Sham,Cons,Clear,34,4,1,0.871084999991581,1
5806,104,Larynx,Sham,Cons,Clear,35,3,1,0.45746450003934996,1
5807,104,Larynx,Sham,Cons,Clear,36,2,0,0.573562600009609,1
5808,104,Larynx,Sham,Cons,Clear,37,3,1,0.462526999996044,1
5809,104,Larynx,Sham,Cons,Clear,38,4,1,0.564457700005732,1
5810,104,Larynx,Sham,Cons,Clear,39,3,1,0.532685099984519,1
5811,104,Larynx,Sham,Cons,Clear,40,4,1,0.5131989999790679,1
5812,104,Larynx,Sham,Cons,Clear,41,2,0,0.5344274999806661,1
5813,104,Larynx,Sham,Cons,Clear,42,2,0,0.616808300022967,1
5814,104,Larynx,Sham,Cons,Clear,43,3,1,0.42841319995932303,1
5815,104,Larynx,Sham,Cons,Clear,44,3,1,0.5148760000010949,1
5816,104,Larynx,Sham,Cons,Clear,45,3,1,0.49283830000786105,1
5817,104,Larynx,Sham,Cons,Clear,46,4,1,0.484478899976239,1
5818,104,Larynx,Sham,Cons,Clear,47,1,0,0.5019393000402489,1
5819,104,Larynx,Sham,Cons,Clear,48,1,0,0.56290869996883,1
5820,104,Larynx,Sham,Cons,Clear,49,2,1,0.544558499997947,1
5821,104,Larynx,Sham,Cons,Clear,50,2,1,0.573706800001673,1
5822,104,Larynx,Sham,Cons,Clear,51,4,0,0.5365358999697489,1
5823,104,Larynx,Sham,Cons,Clear,52,5,1,0.528892100031953,1
5824,104,Larynx,Sham,Cons,Clear,53,5,1,0.5170103000127709,1
5825,104,Larynx,Sham,Cons,Clear,54,3,1,0.443576999998186,1
5826,104,Larynx,Sham,Cons,Clear,55,2,0,0.581511999946088,1
5827,104,Larynx,Sham,Cons,Clear,56,4,1,0.5461152000352739,1
5828,104,Larynx,Sham,Cons,Clear,57,1,0,0.47977859998354705,1
5829,104,Larynx,Sham,Cons,Clear,58,1,0,0.597954800003208,1
5830,104,Larynx,Sham,Cons,Clear,59,3,1,0.80266849999316,1
5831,104,Larynx,Sham,Cons,Clear,60,3,1,0.38125279999803796,1
5832,104,Larynx,Sham,Cons,Clear,61,2,1,0.413126499974169,1
5833,104,Larynx,Sham,Cons,Clear,62,5,1,0.546250400017016,1
5834,104,Larynx,Sham,Cons,Clear,63,4,1,0.465906099998392,1
5835,104,Larynx,Sham,Cons,Clear,64,5,1,0.5102909000124779,1
5836,104,Larynx,Sham,Cons,Clear,65,3,1,0.476481700025033,1
5837,104,Larynx,Sham,Cons,Clear,66,4,1,0.48661359999096,1
5838,104,Larynx,Sham,Cons,Clear,67,3,0,0.5267224999843171,1
5839,104,Larynx,Sham,Cons,Clear,68,1,0,0.501445500005502,1
5840,104,Larynx,Sham,Cons,Clear,69,5,1,0.54137140000239,1
5841,104,Larynx,Sham,Cons,Clear,70,1,0,0.486798400001135,1
5842,104,Larynx,Sham,Cons,Clear,71,3,1,0.453014700033236,1
5843,104,Larynx,Sham,Cons,Clear,72,5,1,0.590146999980789,1
5844,104,Larynx,Sham,Cons,Clear,73,3,1,0.422118399990723,1
5845,104,Larynx,Sham,Cons,Clear,74,3,1,0.5755529000307429,1
5846,104,Larynx,Sham,Cons,Clear,75,2,1,0.465502400009427,1
5847,104,Larynx,Sham,Cons,Clear,76,4,1,0.529361900000367,1
5848,104,Larynx,Sham,Cons,Clear,77,2,0,0.515499500033911,1
5849,104,Larynx,Sham,Cons,Clear,78,4,1,0.44251799996709495,1
5850,104,Larynx,Sham,Cons,Clear,79,2,0,0.507927200000267,1
5851,104,Larynx,Sham,Cons,Clear,80,3,1,0.440376899961848,1
5852,104,Larynx,Sham,Cons,Clear,81,5,1,0.5064943000325001,1
5853,104,Larynx,Sham,Cons,Clear,82,4,1,0.462487900047563,1
5854,104,Larynx,Sham,Cons,Clear,83,1,0,0.5009424999589099,1
5855,104,Larynx,Sham,Cons,Clear,84,2,0,0.5467011999571699,1
5856,104,Larynx,Sham,Cons,Clear,85,5,1,0.47329110000282504,1
5857,104,Larynx,Sham,Cons,Clear,86,1,0,0.6495555000146851,1
5858,104,Larynx,Sham,Cons,Clear,87,3,1,0.6062761999783111,1
5859,104,Larynx,Sham,Cons,Clear,88,1,0,0.572515000007115,1
5860,104,Larynx,Sham,Cons,Clear,89,3,1,0.499679500004277,1
5861,104,Larynx,Sham,Cons,Clear,90,1,0,0.610576399951242,1
5862,104,Larynx,Sham,Cons,Clear,91,4,1,0.546483399986755,1
5863,104,Larynx,Sham,Cons,Clear,92,5,1,0.46723989996826293,1
5864,104,Larynx,Sham,Cons,Clear,93,4,1,0.479005699977279,1
5865,104,Larynx,Sham,Cons,Clear,94,4,1,0.5714590999996291,1
5866,104,Larynx,Sham,Cons,Clear,95,5,1,0.45077739999396704,1
5867,104,Larynx,Sham,Cons,Clear,96,2,0,0.538016000005882,1
5868,104,Larynx,Sham,Cons,Clear,97,2,0,0.642330300004687,1
5869,104,Larynx,Sham,Cons,Clear,98,5,1,0.6043678999994879,1
5870,104,Larynx,Sham,Cons,Clear,99,3,1,0.8756600000197071,1
5871,104,Larynx,Sham,Cons,Clear,100,3,1,0.544679500046186,1
5872,104,Larynx,Sham,Cons,Clear,101,4,1,0.546213300025556,1
5873,104,Larynx,Sham,Cons,Clear,102,2,0,0.479171400016639,1
5874,104,Larynx,Sham,Cons,Clear,103,2,0,0.45737230003578605,1
5875,104,Larynx,Sham,Cons,Clear,104,1,0,0.565504500002135,1
5876,104,Larynx,Sham,Cons,Clear,105,4,1,0.452984999981709,1
5877,104,Larynx,Sham,Cons,Clear,106,3,1,0.539315500005614,1
5878,104,Larynx,Sham,Cons,Clear,107,3,1,0.49168530001770705,1
5879,104,Larynx,Sham,Cons,Clear,108,3,1,0.548901900008786,1
5880,104,Larynx,Sham,Cons,Clear,109,4,1,0.507146099989768,1
5881,104,Larynx,Sham,Cons,Clear,110,5,1,0.510643300018273,1
5882,104,Larynx,Sham,Cons,Clear,111,2,0,0.510525799996685,1
5883,104,Larynx,Sham,Cons,Clear,112,2,0,0.46232210000744106,1
5884,104,Larynx,Sham,Cons,Clear,113,3,1,0.577683099952992,1
5885,104,Larynx,Sham,Cons,Clear,114,3,1,0.406073999998625,1
5886,104,Larynx,Sham,Cons,Clear,115,3,1,0.491619299980812,1
5887,104,Larynx,Sham,Cons,Clear,116,1,0,0.45970150001812704,1
5888,104,Larynx,Sham,Cons,Clear,117,4,0,0.467920599970967,1
5889,104,Larynx,Sham,Cons,Clear,118,2,0,0.582914099970367,1
5890,104,Larynx,Sham,Cons,Clear,119,4,1,0.713134900026489,1
5891,104,Larynx,Sham,Cons,Clear,120,2,0,0.584985799971037,1
5892,104,Larynx,Sham,Cons,Clear,121,3,0,0.537598700029776,1
5893,104,Larynx,Sham,Cons,Clear,122,2,0,0.691351999994367,1
5894,104,Larynx,Sham,Cons,Clear,123,5,1,0.50302990002092,1
5895,104,Larynx,Sham,Cons,Clear,124,3,0,0.6628750999807379,1
5896,104,Larynx,Sham,Cons,Clear,125,5,1,0.688954600016586,1
5897,104,Larynx,Sham,Cons,Clear,126,4,1,0.419507600017823,1
5898,104,Larynx,Sham,Cons,Clear,127,4,1,0.483143899997231,1
5899,104,Larynx,Sham,Cons,Clear,128,1,0,0.492737900000066,1
5900,104,Larynx,Sham,Cons,Clear,129,3,1,0.472079499973916,1
5901,104,Larynx,Sham,Cons,Clear,130,5,1,0.53986179997446,1
5902,104,Larynx,Sham,Cons,Clear,131,4,1,0.673776000039652,1
5903,104,Larynx,Sham,Cons,Clear,132,2,0,0.525274000014178,1
5904,104,Larynx,Sham,Cons,Clear,133,3,0,0.581656299997121,1
5905,104,Larynx,Sham,Cons,Clear,134,2,0,0.606263499998022,1
5906,104,Larynx,Sham,Cons,Clear,135,5,1,0.569156599987764,1
5907,104,Larynx,Sham,Cons,Clear,136,3,1,0.477904599974863,1
5908,104,Larynx,Sham,Cons,Clear,137,3,1,0.492093099979684,1
5909,104,Larynx,Sham,Cons,Clear,138,2,0,0.567319600027986,1
5910,104,Larynx,Sham,Cons,Clear,139,1,0,0.614731899986509,1
5911,104,Larynx,Sham,Cons,Clear,140,4,1,0.463446200010367,1
5912,104,Larynx,Sham,Cons,Clear,141,1,0,0.496634599985555,1
5913,104,Larynx,Sham,Cons,Clear,142,3,1,0.494569499976933,1
5914,104,Larynx,Sham,Cons,Clear,143,4,0,0.513206099974923,1
5915,104,Larynx,Sham,Cons,Clear,144,4,0,0.511457599990536,1
5916,104,Larynx,Sham,Cons,Clear,145,1,0,0.673811900021974,1
5917,104,Larynx,Sham,Cons,Clear,146,2,0,0.6609083000221291,1
5918,104,Larynx,Sham,Cons,Clear,147,3,1,0.7313297000364399,1
5919,104,Larynx,Sham,Cons,Clear,148,5,1,0.457507600018289,1
5920,104,Larynx,Sham,Cons,Clear,149,4,1,0.468867199961096,1
5921,104,Larynx,Sham,Cons,Clear,150,5,1,0.43967539997538596,1
5922,104,Larynx,Sham,Cons,Clear,151,3,1,0.45602490002056606,1
5923,104,Larynx,Sham,Cons,Clear,152,2,0,0.50581299996702,1
5924,104,Larynx,Sham,Cons,Clear,153,3,0,0.493036300002132,1
5925,104,Larynx,Sham,Cons,Clear,154,3,0,0.379303699999582,1
5926,104,Larynx,Sham,Cons,Clear,155,1,1,0.36185420001857,1
5927,104,Larynx,Sham,Cons,Clear,156,1,0,0.50008169998182,1
7644,123,Larynx,Right iTBS,Cons,Clear,1,4,1,0.44961090001743304,1
7645,123,Larynx,Right iTBS,Cons,Clear,2,2,1,0.33448750001844,1
7646,123,Larynx,Right iTBS,Cons,Clear,3,4,1,0.387181799975224,1
7647,123,Larynx,Right iTBS,Cons,Clear,4,3,1,0.477093199966475,1
7648,123,Larynx,Right iTBS,Cons,Clear,5,2,1,0.538070900016464,1
7649,123,Larynx,Right iTBS,Cons,Clear,6,3,1,0.488345399964601,1
7650,123,Larynx,Right iTBS,Cons,Clear,7,5,1,0.43940229993313595,1
7651,123,Larynx,Right iTBS,Cons,Clear,8,1,1,0.297345900093205,1
7652,123,Larynx,Right iTBS,Cons,Clear,9,2,0,0.632001299993135,1
7653,123,Larynx,Right iTBS,Cons,Clear,10,3,1,0.43238869996275797,1
7654,123,Larynx,Right iTBS,Cons,Clear,11,4,1,0.349264699965715,1
7655,123,Larynx,Right iTBS,Cons,Clear,12,3,1,0.3647322999313471,1
7656,123,Larynx,Right iTBS,Cons,Clear,13,5,1,0.38834969990421103,1
7657,123,Larynx,Right iTBS,Cons,Clear,14,3,1,0.359102200018242,1
7658,123,Larynx,Right iTBS,Cons,Clear,15,4,1,0.380133999977261,1
7659,123,Larynx,Right iTBS,Cons,Clear,16,1,0,0.48037979996297503,1
7660,123,Larynx,Right iTBS,Cons,Clear,17,1,1,0.372518599964678,1
7661,123,Larynx,Right iTBS,Cons,Clear,18,1,0,0.623582599917427,1
7662,123,Larynx,Right iTBS,Cons,Clear,19,5,1,0.33994480001274496,1
7663,123,Larynx,Right iTBS,Cons,Clear,20,3,1,0.35639999993145505,1
7664,123,Larynx,Right iTBS,Cons,Clear,21,3,1,0.366933300043456,1
7665,123,Larynx,Right iTBS,Cons,Clear,22,2,1,0.36072270001750395,1
7666,123,Larynx,Right iTBS,Cons,Clear,23,5,1,0.39199409994762396,1
7667,123,Larynx,Right iTBS,Cons,Clear,24,4,1,0.383422399987467,1
7668,123,Larynx,Right iTBS,Cons,Clear,25,2,1,0.465102099929936,1
7669,123,Larynx,Right iTBS,Cons,Clear,26,1,0,0.408355299965478,1
7670,123,Larynx,Right iTBS,Cons,Clear,27,2,1,0.340499399928376,1
7671,123,Larynx,Right iTBS,Cons,Clear,28,3,1,0.30648260004818395,1
7672,123,Larynx,Right iTBS,Cons,Clear,29,3,1,0.35575740004424,1
7673,123,Larynx,Right iTBS,Cons,Clear,30,4,1,0.36967260006349495,1
7674,123,Larynx,Right iTBS,Cons,Clear,31,3,1,0.370699399965815,1
7675,123,Larynx,Right iTBS,Cons,Clear,32,5,1,0.45687759993597904,1
7676,123,Larynx,Right iTBS,Cons,Clear,33,5,1,0.407836900092661,1
7677,123,Larynx,Right iTBS,Cons,Clear,34,4,1,0.517231300007552,1
7678,123,Larynx,Right iTBS,Cons,Clear,35,2,1,0.572832899983041,1
7679,123,Larynx,Right iTBS,Cons,Clear,36,3,1,0.4789462999906389,1
7680,123,Larynx,Right iTBS,Cons,Clear,37,4,1,0.44549670000560604,1
7681,123,Larynx,Right iTBS,Cons,Clear,38,1,1,0.5754624999826771,1
7682,123,Larynx,Right iTBS,Cons,Clear,39,2,1,0.45051129988860295,1
7683,123,Larynx,Right iTBS,Cons,Clear,40,3,1,0.395706500043161,1
7684,123,Larynx,Right iTBS,Cons,Clear,41,2,1,0.333954999921843,1
7685,123,Larynx,Right iTBS,Cons,Clear,42,3,1,0.354247500072233,1
7686,123,Larynx,Right iTBS,Cons,Clear,43,5,1,0.5276099999900911,1
7687,123,Larynx,Right iTBS,Cons,Clear,44,5,1,0.5597187000093979,1
7688,123,Larynx,Right iTBS,Cons,Clear,45,5,1,0.7955293999984859,1
7689,123,Larynx,Right iTBS,Cons,Clear,46,2,0,0.698543100035749,1
7690,123,Larynx,Right iTBS,Cons,Clear,47,4,1,0.48287179996259494,1
7691,123,Larynx,Right iTBS,Cons,Clear,48,4,1,0.400979700032622,1
7692,123,Larynx,Right iTBS,Cons,Clear,49,1,0,0.651771800010465,1
7693,123,Larynx,Right iTBS,Cons,Clear,50,3,1,0.386736499960534,1
7694,123,Larynx,Right iTBS,Cons,Clear,51,4,1,0.36739789997227507,1
7695,123,Larynx,Right iTBS,Cons,Clear,52,3,1,0.36038530000951097,1
7696,123,Larynx,Right iTBS,Cons,Clear,53,2,1,0.37642899993807105,1
7697,123,Larynx,Right iTBS,Cons,Clear,54,1,0,0.47700249997433297,1
7698,123,Larynx,Right iTBS,Cons,Clear,55,2,0,0.637266099918634,1
7699,123,Larynx,Right iTBS,Cons,Clear,56,2,0,0.6715488000772889,1
7700,123,Larynx,Right iTBS,Cons,Clear,57,1,0,0.552022100077011,1
7701,123,Larynx,Right iTBS,Cons,Clear,58,1,0,0.455267400015146,1
7702,123,Larynx,Right iTBS,Cons,Clear,59,3,1,0.43557789991609797,1
7703,123,Larynx,Right iTBS,Cons,Clear,60,3,1,0.439615600043908,1
7704,123,Larynx,Right iTBS,Cons,Clear,61,5,1,0.43018389993812894,1
7705,123,Larynx,Right iTBS,Cons,Clear,62,1,0,0.580832500010729,1
7706,123,Larynx,Right iTBS,Cons,Clear,63,3,1,0.395518100005575,1
7707,123,Larynx,Right iTBS,Cons,Clear,64,2,1,0.420473799924366,1
7708,123,Larynx,Right iTBS,Cons,Clear,65,5,1,0.343045799992979,1
7709,123,Larynx,Right iTBS,Cons,Clear,66,4,1,0.367886800086126,1
7710,123,Larynx,Right iTBS,Cons,Clear,67,2,1,0.413563799927942,1
7711,123,Larynx,Right iTBS,Cons,Clear,68,4,1,0.556381299975328,1
7712,123,Larynx,Right iTBS,Cons,Clear,69,5,1,0.43361680000089103,1
7713,123,Larynx,Right iTBS,Cons,Clear,70,3,1,0.38286870007868895,1
7714,123,Larynx,Right iTBS,Cons,Clear,71,1,0,0.569634800078347,1
7715,123,Larynx,Right iTBS,Cons,Clear,72,3,1,0.383777700015344,1
7716,123,Larynx,Right iTBS,Cons,Clear,73,3,1,0.426221700035967,1
7717,123,Larynx,Right iTBS,Cons,Clear,74,4,1,0.44892009999603005,1
7718,123,Larynx,Right iTBS,Cons,Clear,75,4,1,0.37113500002306,1
7719,123,Larynx,Right iTBS,Cons,Clear,76,4,1,0.451042099972256,1
7720,123,Larynx,Right iTBS,Cons,Clear,77,2,1,0.467192300013267,1
7721,123,Larynx,Right iTBS,Cons,Clear,78,3,1,0.46947490004822606,1
7722,123,Larynx,Right iTBS,Cons,Clear,79,3,1,0.464478799956851,1
7723,123,Larynx,Right iTBS,Cons,Clear,80,3,1,0.364567399956286,1
7724,123,Larynx,Right iTBS,Cons,Clear,81,4,1,0.394748999970034,1
7725,123,Larynx,Right iTBS,Cons,Clear,82,2,1,0.38721110008191295,1
7726,123,Larynx,Right iTBS,Cons,Clear,83,1,0,0.43915640003979206,1
7727,123,Larynx,Right iTBS,Cons,Clear,84,3,1,0.39993640000466296,1
7728,123,Larynx,Right iTBS,Cons,Clear,85,5,1,0.34807970002293603,1
7729,123,Larynx,Right iTBS,Cons,Clear,86,3,1,0.363271299982443,1
7730,123,Larynx,Right iTBS,Cons,Clear,87,4,1,0.373706699931063,1
7731,123,Larynx,Right iTBS,Cons,Clear,88,2,1,0.40190249995794103,1
7732,123,Larynx,Right iTBS,Cons,Clear,89,3,1,0.654600900015794,1
7733,123,Larynx,Right iTBS,Cons,Clear,90,4,1,0.49394339998252706,1
7734,123,Larynx,Right iTBS,Cons,Clear,91,3,1,0.458093499997631,1
7735,123,Larynx,Right iTBS,Cons,Clear,92,1,1,0.361040699994192,1
7736,123,Larynx,Right iTBS,Cons,Clear,93,2,0,0.0009908999782055619,1
7737,123,Larynx,Right iTBS,Cons,Clear,94,2,1,1.1403834999073301,1
7738,123,Larynx,Right iTBS,Cons,Clear,95,3,1,0.49142520001623796,1
7739,123,Larynx,Right iTBS,Cons,Clear,96,1,0,0.6225431000348179,1
7740,123,Larynx,Right iTBS,Cons,Clear,97,1,0,0.6496908999979499,1
7741,123,Larynx,Right iTBS,Cons,Clear,98,4,1,0.46426739997696104,1
7742,123,Larynx,Right iTBS,Cons,Clear,99,1,0,0.6037004999816421,1
7743,123,Larynx,Right iTBS,Cons,Clear,100,5,1,0.362489299965091,1
7744,123,Larynx,Right iTBS,Cons,Clear,101,3,1,0.34518369997385906,1
7745,123,Larynx,Right iTBS,Cons,Clear,102,4,1,0.374081599991769,1
7746,123,Larynx,Right iTBS,Cons,Clear,103,5,1,0.35912269994150803,1
7747,123,Larynx,Right iTBS,Cons,Clear,104,4,1,0.451816800050437,1
7748,123,Larynx,Right iTBS,Cons,Clear,105,2,0,0.5666228999616579,1
7749,123,Larynx,Right iTBS,Cons,Clear,106,5,1,0.36122580000665,1
7750,123,Larynx,Right iTBS,Cons,Clear,107,1,0,0.608565800008364,1
7751,123,Larynx,Right iTBS,Cons,Clear,108,2,1,0.36875119991600497,1
7752,123,Larynx,Right iTBS,Cons,Clear,109,5,1,0.417204299941659,1
7753,123,Larynx,Right iTBS,Cons,Clear,110,4,1,0.374361099908128,1
7754,123,Larynx,Right iTBS,Cons,Clear,111,2,0,0.777322800015099,1
7755,123,Larynx,Right iTBS,Cons,Clear,112,3,1,0.40173149993643203,1
7756,123,Larynx,Right iTBS,Cons,Clear,113,3,1,0.435190499993041,1
7757,123,Larynx,Right iTBS,Cons,Clear,114,5,1,0.393970599980094,1
7758,123,Larynx,Right iTBS,Cons,Clear,115,3,1,0.4847624000394721,1
7759,123,Larynx,Right iTBS,Cons,Clear,116,4,1,0.368481400073506,1
7760,123,Larynx,Right iTBS,Cons,Clear,117,2,1,0.43125310004688794,1
7761,123,Larynx,Right iTBS,Cons,Clear,118,5,1,0.410069999983534,1
7762,123,Larynx,Right iTBS,Cons,Clear,119,3,1,0.44276260002516205,1
7763,123,Larynx,Right iTBS,Cons,Clear,120,3,1,0.469963500043377,1
7764,123,Larynx,Right iTBS,Cons,Clear,121,4,1,0.41270699992310295,1
7765,123,Larynx,Right iTBS,Cons,Clear,122,3,1,0.481155999936163,1
7766,123,Larynx,Right iTBS,Cons,Clear,123,5,1,0.541812500101514,1
7767,123,Larynx,Right iTBS,Cons,Clear,124,5,1,0.596634700079449,1
7768,123,Larynx,Right iTBS,Cons,Clear,125,1,0,0.5459995999699461,1
7769,123,Larynx,Right iTBS,Cons,Clear,126,4,1,0.36220649990718795,1
7770,123,Larynx,Right iTBS,Cons,Clear,127,1,0,0.640312000061385,1
7771,123,Larynx,Right iTBS,Cons,Clear,128,2,1,0.35268070001620794,1
7772,123,Larynx,Right iTBS,Cons,Clear,129,3,1,0.38345660001505205,1
7773,123,Larynx,Right iTBS,Cons,Clear,130,1,0,0.61699160002172,1
7774,123,Larynx,Right iTBS,Cons,Clear,131,1,0,0.666408600052819,1
7775,123,Larynx,Right iTBS,Cons,Clear,132,5,1,0.426563999964856,1
7776,123,Larynx,Right iTBS,Cons,Clear,133,3,1,0.34511440002825106,1
7777,123,Larynx,Right iTBS,Cons,Clear,134,1,0,0.5529727999819439,1
7778,123,Larynx,Right iTBS,Cons,Clear,135,2,1,0.380485799978487,1
7779,123,Larynx,Right iTBS,Cons,Clear,136,2,1,0.342510299989954,1
7780,123,Larynx,Right iTBS,Cons,Clear,137,3,1,0.156870400067419,1
7781,123,Larynx,Right iTBS,Cons,Clear,138,4,1,0.249339399975725,1
7782,123,Larynx,Right iTBS,Cons,Clear,139,2,1,0.34944039990659803,1
7783,123,Larynx,Right iTBS,Cons,Clear,140,4,1,0.40255240001715703,1
7784,123,Larynx,Right iTBS,Cons,Clear,141,3,1,0.40212649991735794,1
7785,123,Larynx,Right iTBS,Cons,Clear,142,1,1,0.365226899972185,1
7786,123,Larynx,Right iTBS,Cons,Clear,143,3,1,0.679166199988686,1
7787,123,Larynx,Right iTBS,Cons,Clear,144,4,1,0.605753800016828,1
7788,123,Larynx,Right iTBS,Cons,Clear,145,2,0,0.5789178999839351,1
7789,123,Larynx,Right iTBS,Cons,Clear,146,2,0,0.545335500035435,1
7790,123,Larynx,Right iTBS,Cons,Clear,147,2,0,0.532794600003399,1
7791,123,Larynx,Right iTBS,Cons,Clear,148,2,0,0.502953600022011,1
7792,123,Larynx,Right iTBS,Cons,Clear,149,5,1,0.477723299991339,1
7793,123,Larynx,Right iTBS,Cons,Clear,150,4,1,0.396571299992502,1
7794,123,Larynx,Right iTBS,Cons,Clear,151,3,1,0.32548080000560703,1
7795,123,Larynx,Right iTBS,Cons,Clear,152,4,1,0.34177120006643197,1
7796,123,Larynx,Right iTBS,Cons,Clear,153,4,1,0.3533713000360879,1
7797,123,Larynx,Right iTBS,Cons,Clear,154,3,1,0.33186749997548803,1
7798,123,Larynx,Right iTBS,Cons,Clear,155,5,1,0.330755900009535,1
7799,123,Larynx,Right iTBS,Cons,Clear,156,3,1,0.362775700050406,1
8892,123,Larynx,Sham,Cons,Clear,1,3,0,0.663217500085011,1
8893,123,Larynx,Sham,Cons,Clear,2,4,1,0.47877150005660996,1
8894,123,Larynx,Sham,Cons,Clear,3,2,1,0.609148100018501,1
8895,123,Larynx,Sham,Cons,Clear,4,5,1,0.41554849990643605,1
8896,123,Larynx,Sham,Cons,Clear,5,2,0,0.6487003999063751,1
8897,123,Larynx,Sham,Cons,Clear,6,3,1,0.541122099966742,1
8898,123,Larynx,Sham,Cons,Clear,7,2,1,0.40780780010391,1
8899,123,Larynx,Sham,Cons,Clear,8,5,1,0.36240109999198494,1
8900,123,Larynx,Sham,Cons,Clear,9,1,1,0.38000699994154297,1
8901,123,Larynx,Sham,Cons,Clear,10,3,1,0.48610830004327,1
8902,123,Larynx,Sham,Cons,Clear,11,4,1,0.43499349988997,1
8903,123,Larynx,Sham,Cons,Clear,12,3,1,0.414369500009343,1
8904,123,Larynx,Sham,Cons,Clear,13,5,1,0.496805800008588,1
8905,123,Larynx,Sham,Cons,Clear,14,4,1,0.45130209997296294,1
8906,123,Larynx,Sham,Cons,Clear,15,4,1,0.440384900080971,1
8907,123,Larynx,Sham,Cons,Clear,16,2,1,0.4033231000648811,1
8908,123,Larynx,Sham,Cons,Clear,17,4,1,0.569533100002445,1
8909,123,Larynx,Sham,Cons,Clear,18,3,1,0.4718284000409771,1
8910,123,Larynx,Sham,Cons,Clear,19,1,0,0.511027700034902,1
8911,123,Larynx,Sham,Cons,Clear,20,2,1,0.37663199997041397,1
8912,123,Larynx,Sham,Cons,Clear,21,3,1,0.497107499977574,1
8913,123,Larynx,Sham,Cons,Clear,22,5,1,0.390584000037052,1
8914,123,Larynx,Sham,Cons,Clear,23,4,1,0.433863999904133,1
8915,123,Larynx,Sham,Cons,Clear,24,1,0,0.528785500093363,1
8916,123,Larynx,Sham,Cons,Clear,25,5,1,0.47837350005284,1
8917,123,Larynx,Sham,Cons,Clear,26,2,1,0.346135700005107,1
8918,123,Larynx,Sham,Cons,Clear,27,3,1,0.5457629999145871,1
8919,123,Larynx,Sham,Cons,Clear,28,1,0,0.769922200008295,1
8920,123,Larynx,Sham,Cons,Clear,29,4,1,0.879807899938896,1
8921,123,Larynx,Sham,Cons,Clear,30,1,0,0.518930500023998,1
8922,123,Larynx,Sham,Cons,Clear,31,1,0,0.565632299985737,1
8923,123,Larynx,Sham,Cons,Clear,32,3,1,0.468460199888796,1
8924,123,Larynx,Sham,Cons,Clear,33,5,1,0.36361299990676293,1
8925,123,Larynx,Sham,Cons,Clear,34,2,0,0.536855999962427,1
8926,123,Larynx,Sham,Cons,Clear,35,4,1,0.3918847000459211,1
8927,123,Larynx,Sham,Cons,Clear,36,2,1,0.449209999991581,1
8928,123,Larynx,Sham,Cons,Clear,37,3,1,0.39595200004987396,1
8929,123,Larynx,Sham,Cons,Clear,38,3,1,0.34959380002692303,1
8930,123,Larynx,Sham,Cons,Clear,39,3,1,0.41465489997062804,1
8931,123,Larynx,Sham,Cons,Clear,40,2,1,0.6211153999902309,1
8932,123,Larynx,Sham,Cons,Clear,41,4,1,0.45984200004022596,1
8933,123,Larynx,Sham,Cons,Clear,42,4,1,0.5660029000137,1
8934,123,Larynx,Sham,Cons,Clear,43,2,1,0.5688358999323101,1
8935,123,Larynx,Sham,Cons,Clear,44,3,1,0.605189599911682,1
8936,123,Larynx,Sham,Cons,Clear,45,3,1,0.640283000073396,1
8937,123,Larynx,Sham,Cons,Clear,46,1,0,0.5601390999509019,1
8938,123,Larynx,Sham,Cons,Clear,47,4,1,0.684137200005353,1
8939,123,Larynx,Sham,Cons,Clear,48,3,1,0.377128800028004,1
8940,123,Larynx,Sham,Cons,Clear,49,2,1,0.38026890007313296,1
8941,123,Larynx,Sham,Cons,Clear,50,5,1,0.36041409999597795,1
8942,123,Larynx,Sham,Cons,Clear,51,1,0,0.608957699965686,1
8943,123,Larynx,Sham,Cons,Clear,52,5,1,0.37292550003621705,1
8944,123,Larynx,Sham,Cons,Clear,53,4,1,0.32657510007265994,1
8945,123,Larynx,Sham,Cons,Clear,54,3,1,0.260311299934983,1
8946,123,Larynx,Sham,Cons,Clear,55,1,1,0.276063999976031,1
8947,123,Larynx,Sham,Cons,Clear,56,5,1,0.43088080000598,1
8948,123,Larynx,Sham,Cons,Clear,57,3,1,0.37724199995864205,1
8949,123,Larynx,Sham,Cons,Clear,58,4,1,0.430339899961837,1
8950,123,Larynx,Sham,Cons,Clear,59,3,1,0.6187391000567,1
8951,123,Larynx,Sham,Cons,Clear,60,2,1,0.38113069999963,1
8952,123,Larynx,Sham,Cons,Clear,61,3,1,0.556596100097522,1
8953,123,Larynx,Sham,Cons,Clear,62,3,1,0.48240059998352103,1
8954,123,Larynx,Sham,Cons,Clear,63,2,1,0.43207430001348296,1
8955,123,Larynx,Sham,Cons,Clear,64,5,1,0.5819381000474101,1
8956,123,Larynx,Sham,Cons,Clear,65,5,1,0.36659360001795,1
8957,123,Larynx,Sham,Cons,Clear,66,1,0,0.6017624000087379,1
8958,123,Larynx,Sham,Cons,Clear,67,3,1,0.641593700041994,1
8959,123,Larynx,Sham,Cons,Clear,68,4,1,0.459608100005426,1
8960,123,Larynx,Sham,Cons,Clear,69,2,0,0.519737599999644,1
8961,123,Larynx,Sham,Cons,Clear,70,3,1,0.337890699971467,1
8962,123,Larynx,Sham,Cons,Clear,71,3,1,0.516521199955605,1
8963,123,Larynx,Sham,Cons,Clear,72,2,0,1.05420730006881,1
8964,123,Larynx,Sham,Cons,Clear,73,1,0,0.6681480000261221,1
8965,123,Larynx,Sham,Cons,Clear,74,4,1,0.5089319999096921,1
8966,123,Larynx,Sham,Cons,Clear,75,5,1,0.5657353999558841,1
8967,123,Larynx,Sham,Cons,Clear,76,1,0,0.569870700011961,1
8968,123,Larynx,Sham,Cons,Clear,77,2,0,0.7914224999258291,1
8969,123,Larynx,Sham,Cons,Clear,78,4,1,0.381552300066687,1
8970,123,Larynx,Sham,Cons,Clear,79,3,1,0.513077400042675,1
8971,123,Larynx,Sham,Cons,Clear,80,4,1,0.43070819997228704,1
8972,123,Larynx,Sham,Cons,Clear,81,2,1,0.706666799960658,1
8973,123,Larynx,Sham,Cons,Clear,82,1,0,0.630999300046824,1
8974,123,Larynx,Sham,Cons,Clear,83,1,0,0.990472700097598,1
8975,123,Larynx,Sham,Cons,Clear,84,3,1,0.713512199930847,1
8976,123,Larynx,Sham,Cons,Clear,85,3,1,0.434351500007324,1
8977,123,Larynx,Sham,Cons,Clear,86,5,1,0.45247210003435606,1
8978,123,Larynx,Sham,Cons,Clear,87,5,1,0.404435700038448,1
8979,123,Larynx,Sham,Cons,Clear,88,3,1,0.297924699960276,1
8980,123,Larynx,Sham,Cons,Clear,89,3,1,0.41651110001839703,1
8981,123,Larynx,Sham,Cons,Clear,90,3,1,0.48808020004071295,1
8982,123,Larynx,Sham,Cons,Clear,91,4,1,0.627907799906097,1
8983,123,Larynx,Sham,Cons,Clear,92,2,1,0.8904097999911759,1
8984,123,Larynx,Sham,Cons,Clear,93,3,1,0.5060490999603641,1
8985,123,Larynx,Sham,Cons,Clear,94,4,1,0.478531299973838,1
8986,123,Larynx,Sham,Cons,Clear,95,5,1,0.4843150000087921,1
8987,123,Larynx,Sham,Cons,Clear,96,4,1,0.503425500006415,1
8988,123,Larynx,Sham,Cons,Clear,97,5,1,0.5517540000146249,1
8989,123,Larynx,Sham,Cons,Clear,98,3,1,0.504464800003916,1
8990,123,Larynx,Sham,Cons,Clear,99,2,0,0.606345599982888,1
8991,123,Larynx,Sham,Cons,Clear,100,3,1,0.431687099975534,1
8992,123,Larynx,Sham,Cons,Clear,101,4,1,0.33889219991397096,1
8993,123,Larynx,Sham,Cons,Clear,102,1,0,0.565093000070192,1
8994,123,Larynx,Sham,Cons,Clear,103,1,0,0.576436599949375,1
8995,123,Larynx,Sham,Cons,Clear,104,2,1,0.5595745999598879,1
8996,123,Larynx,Sham,Cons,Clear,105,2,0,0.752073299954645,1
8997,123,Larynx,Sham,Cons,Clear,106,5,1,0.46695589995943004,1
8998,123,Larynx,Sham,Cons,Clear,107,4,1,0.38407859997823796,1
8999,123,Larynx,Sham,Cons,Clear,108,2,1,0.37800790008623203,1
9000,123,Larynx,Sham,Cons,Clear,109,4,1,0.39161549997516,1
9001,123,Larynx,Sham,Cons,Clear,110,2,1,0.471789199975319,1
9002,123,Larynx,Sham,Cons,Clear,111,3,1,0.643698600004427,1
9003,123,Larynx,Sham,Cons,Clear,112,1,0,0.58779689995572,1
9004,123,Larynx,Sham,Cons,Clear,113,1,1,0.40108599991071997,1
9005,123,Larynx,Sham,Cons,Clear,114,3,1,0.41328639991115795,1
9006,123,Larynx,Sham,Cons,Clear,115,4,1,0.45347910001874,1
9007,123,Larynx,Sham,Cons,Clear,116,2,0,0.748297899961472,1
9008,123,Larynx,Sham,Cons,Clear,117,5,1,0.4395337000023571,1
9009,123,Larynx,Sham,Cons,Clear,118,3,1,0.35312450001947604,1
9010,123,Larynx,Sham,Cons,Clear,119,3,1,0.37298999994527504,1
9011,123,Larynx,Sham,Cons,Clear,120,2,1,0.34043410001322605,1
9012,123,Larynx,Sham,Cons,Clear,121,1,1,0.449144699960016,1
9013,123,Larynx,Sham,Cons,Clear,122,3,1,0.622139299986884,1
9014,123,Larynx,Sham,Cons,Clear,123,3,1,0.476697799982503,1
9015,123,Larynx,Sham,Cons,Clear,124,2,1,0.448133099940605,1
9016,123,Larynx,Sham,Cons,Clear,125,1,0,0.6261199999134991,1
9017,123,Larynx,Sham,Cons,Clear,126,4,1,0.51335789996665,1
9018,123,Larynx,Sham,Cons,Clear,127,4,1,0.49332090001553297,1
9019,123,Larynx,Sham,Cons,Clear,128,5,1,0.355879899929278,1
9020,123,Larynx,Sham,Cons,Clear,129,5,1,0.44639309996273396,1
9021,123,Larynx,Sham,Cons,Clear,130,5,1,0.38051260006614,1
9022,123,Larynx,Sham,Cons,Clear,131,3,1,0.5398303999099879,1
9023,123,Larynx,Sham,Cons,Clear,132,1,0,0.575281600002199,1
9024,123,Larynx,Sham,Cons,Clear,133,1,0,0.6510298000648621,1
9025,123,Larynx,Sham,Cons,Clear,134,2,0,0.6793010999681429,1
9026,123,Larynx,Sham,Cons,Clear,135,2,1,0.425472900038585,1
9027,123,Larynx,Sham,Cons,Clear,136,2,1,0.349906599964015,1
9028,123,Larynx,Sham,Cons,Clear,137,5,1,0.4122769000241529,1
9029,123,Larynx,Sham,Cons,Clear,138,5,1,0.37706340011209205,1
9030,123,Larynx,Sham,Cons,Clear,139,4,1,0.443844499997795,1
9031,123,Larynx,Sham,Cons,Clear,140,4,1,0.515743599971756,1
9032,123,Larynx,Sham,Cons,Clear,141,2,0,0.703474100097083,1
9033,123,Larynx,Sham,Cons,Clear,142,2,1,0.38120659999549394,1
9034,123,Larynx,Sham,Cons,Clear,143,4,1,0.45808100001886504,1
9035,123,Larynx,Sham,Cons,Clear,144,5,1,0.36442840006202504,1
9036,123,Larynx,Sham,Cons,Clear,145,3,1,0.387875200016424,1
9037,123,Larynx,Sham,Cons,Clear,146,3,1,0.35562679998111,1
9038,123,Larynx,Sham,Cons,Clear,147,3,1,0.319056899985299,1
9039,123,Larynx,Sham,Cons,Clear,148,3,1,0.40138259995728703,1
9040,123,Larynx,Sham,Cons,Clear,149,3,1,0.342998999985866,1
9041,123,Larynx,Sham,Cons,Clear,150,4,1,0.348280899925157,1
9042,123,Larynx,Sham,Cons,Clear,151,4,1,0.34149350004736306,1
9043,123,Larynx,Sham,Cons,Clear,152,4,1,0.35459070000797493,1
9044,123,Larynx,Sham,Cons,Clear,153,1,0,0.549149800091982,1
9045,123,Larynx,Sham,Cons,Clear,154,3,1,0.657464199932292,1
9046,123,Larynx,Sham,Cons,Clear,155,1,1,0.358980800025165,1
9047,123,Larynx,Sham,Cons,Clear,156,2,0,0.6610094999196011,1
10764,139,Larynx,Right iTBS,Cons,Clear,1,5,1,0.597764400066808,1
10765,139,Larynx,Right iTBS,Cons,Clear,2,4,1,0.544687499990687,1
10766,139,Larynx,Right iTBS,Cons,Clear,3,5,1,0.5720027000643311,1
10767,139,Larynx,Right iTBS,Cons,Clear,4,1,0,0.475679700030014,1
10768,139,Larynx,Right iTBS,Cons,Clear,5,3,1,0.633452699985355,1
10769,139,Larynx,Right iTBS,Cons,Clear,6,2,0,0.619043000042439,1
10770,139,Larynx,Right iTBS,Cons,Clear,7,3,1,0.419810799998231,1
10771,139,Larynx,Right iTBS,Cons,Clear,8,5,0,0.553293699980713,1
10772,139,Larynx,Right iTBS,Cons,Clear,9,2,0,0.694867999991402,1
10773,139,Larynx,Right iTBS,Cons,Clear,10,4,1,0.5129195000045,1
10774,139,Larynx,Right iTBS,Cons,Clear,11,5,1,0.5758204000303521,1
10775,139,Larynx,Right iTBS,Cons,Clear,12,2,0,0.6289021000266078,1
10776,139,Larynx,Right iTBS,Cons,Clear,13,2,0,0.697882300009951,1
10777,139,Larynx,Right iTBS,Cons,Clear,14,4,1,0.453005299903452,1
10778,139,Larynx,Right iTBS,Cons,Clear,15,1,0,0.618367900024168,1
10779,139,Larynx,Right iTBS,Cons,Clear,16,3,1,0.554168400005437,1
10780,139,Larynx,Right iTBS,Cons,Clear,17,3,1,0.5726555999135601,1
10781,139,Larynx,Right iTBS,Cons,Clear,18,3,1,0.680765399942175,1
10782,139,Larynx,Right iTBS,Cons,Clear,19,5,1,0.61584770004265,1
10783,139,Larynx,Right iTBS,Cons,Clear,20,2,0,0.581154100014828,1
10784,139,Larynx,Right iTBS,Cons,Clear,21,1,0,0.611103600007482,1
10785,139,Larynx,Right iTBS,Cons,Clear,22,2,0,0.6432565000141041,1
10786,139,Larynx,Right iTBS,Cons,Clear,23,4,1,0.676827999996021,1
10787,139,Larynx,Right iTBS,Cons,Clear,24,3,1,0.8738226999994371,1
10788,139,Larynx,Right iTBS,Cons,Clear,25,4,1,0.647237899946049,1
10789,139,Larynx,Right iTBS,Cons,Clear,26,1,0,0.5598210999742149,1
10790,139,Larynx,Right iTBS,Cons,Clear,27,5,1,0.8346080000046641,1
10791,139,Larynx,Right iTBS,Cons,Clear,28,1,0,0.531695200013928,1
10792,139,Larynx,Right iTBS,Cons,Clear,29,2,0,0.746917100041173,1
10793,139,Larynx,Right iTBS,Cons,Clear,30,3,1,0.5143255000002679,1
10794,139,Larynx,Right iTBS,Cons,Clear,31,4,1,0.53784809994977,1
10795,139,Larynx,Right iTBS,Cons,Clear,32,3,1,0.5443508999887849,1
10796,139,Larynx,Right iTBS,Cons,Clear,33,1,0,0.46518940001260495,1
10797,139,Larynx,Right iTBS,Cons,Clear,34,4,1,0.681507700006478,1
10798,139,Larynx,Right iTBS,Cons,Clear,35,3,1,0.64518750004936,1
10799,139,Larynx,Right iTBS,Cons,Clear,36,2,0,0.7176588999573141,1
10800,139,Larynx,Right iTBS,Cons,Clear,37,3,1,0.425043500028551,1
10801,139,Larynx,Right iTBS,Cons,Clear,38,4,1,0.45865009992849104,1
10802,139,Larynx,Right iTBS,Cons,Clear,39,3,1,0.5576910000527281,1
10803,139,Larynx,Right iTBS,Cons,Clear,40,4,1,0.49522879999131003,1
10804,139,Larynx,Right iTBS,Cons,Clear,41,2,1,0.7735703999642279,1
10805,139,Larynx,Right iTBS,Cons,Clear,42,2,1,0.6439141000155361,1
10806,139,Larynx,Right iTBS,Cons,Clear,43,3,1,0.593402900034562,1
10807,139,Larynx,Right iTBS,Cons,Clear,44,3,1,0.504912899923511,1
10808,139,Larynx,Right iTBS,Cons,Clear,45,3,1,0.5576277000363921,1
10809,139,Larynx,Right iTBS,Cons,Clear,46,4,1,0.490797500009649,1
10810,139,Larynx,Right iTBS,Cons,Clear,47,1,0,0.5442551000742241,1
10811,139,Larynx,Right iTBS,Cons,Clear,48,1,0,0.5602938999654731,1
10812,139,Larynx,Right iTBS,Cons,Clear,49,2,0,0.71330060006585,1
10813,139,Larynx,Right iTBS,Cons,Clear,50,2,1,0.758951999945566,1
10814,139,Larynx,Right iTBS,Cons,Clear,51,4,1,0.762930999975652,1
10815,139,Larynx,Right iTBS,Cons,Clear,52,5,1,0.6744931000284851,1
10816,139,Larynx,Right iTBS,Cons,Clear,53,5,1,0.6093360999366271,1
10817,139,Larynx,Right iTBS,Cons,Clear,54,3,1,0.680271000019275,1
10818,139,Larynx,Right iTBS,Cons,Clear,55,2,0,0.617406700039282,1
10819,139,Larynx,Right iTBS,Cons,Clear,56,4,1,0.535049300058745,1
10820,139,Larynx,Right iTBS,Cons,Clear,57,1,0,0.598307600012049,1
10821,139,Larynx,Right iTBS,Cons,Clear,58,1,0,0.6942210999550301,1
10822,139,Larynx,Right iTBS,Cons,Clear,59,3,1,0.6120712000411,1
10823,139,Larynx,Right iTBS,Cons,Clear,60,3,1,0.562481499975547,1
10824,139,Larynx,Right iTBS,Cons,Clear,61,2,0,0.6782342999940739,1
10825,139,Larynx,Right iTBS,Cons,Clear,62,5,1,0.619951099972241,1
10826,139,Larynx,Right iTBS,Cons,Clear,63,4,1,0.539909899933264,1
10827,139,Larynx,Right iTBS,Cons,Clear,64,5,1,0.5473169999895621,1
10828,139,Larynx,Right iTBS,Cons,Clear,65,3,0,0.631826400058344,1
10829,139,Larynx,Right iTBS,Cons,Clear,66,4,1,0.6143117001047359,1
10830,139,Larynx,Right iTBS,Cons,Clear,67,3,1,0.775546599994414,1
10831,139,Larynx,Right iTBS,Cons,Clear,68,1,0,0.5640585999935871,1
10832,139,Larynx,Right iTBS,Cons,Clear,69,5,1,0.5625032000243659,1
10833,139,Larynx,Right iTBS,Cons,Clear,70,1,0,0.576157600036822,1
10834,139,Larynx,Right iTBS,Cons,Clear,71,3,1,0.663586499984376,1
10835,139,Larynx,Right iTBS,Cons,Clear,72,5,1,0.564137100009248,1
10836,139,Larynx,Right iTBS,Cons,Clear,73,3,1,0.917880099965259,1
10837,139,Larynx,Right iTBS,Cons,Clear,74,3,1,0.664938100031577,1
10838,139,Larynx,Right iTBS,Cons,Clear,75,2,0,0.687176899984479,1
10839,139,Larynx,Right iTBS,Cons,Clear,76,4,1,0.61318540002685,1
10840,139,Larynx,Right iTBS,Cons,Clear,77,2,0,0.667159000062384,1
10841,139,Larynx,Right iTBS,Cons,Clear,78,4,1,0.8187118000350891,1
10842,139,Larynx,Right iTBS,Cons,Clear,79,2,0,0.751975000021048,1
10843,139,Larynx,Right iTBS,Cons,Clear,80,3,1,0.74035920004826,1
10844,139,Larynx,Right iTBS,Cons,Clear,81,5,1,0.559094300027937,1
10845,139,Larynx,Right iTBS,Cons,Clear,82,4,1,0.7080412999494,1
10846,139,Larynx,Right iTBS,Cons,Clear,83,1,0,0.624952999991365,1
10847,139,Larynx,Right iTBS,Cons,Clear,84,2,0,0.810956400004216,1
10848,139,Larynx,Right iTBS,Cons,Clear,85,5,1,0.491464100079611,1
10849,139,Larynx,Right iTBS,Cons,Clear,86,1,0,0.5223920999560511,1
10850,139,Larynx,Right iTBS,Cons,Clear,87,3,1,0.633047000039369,1
10851,139,Larynx,Right iTBS,Cons,Clear,88,1,0,0.731474500033073,1
10852,139,Larynx,Right iTBS,Cons,Clear,89,3,1,0.627500700065866,1
10853,139,Larynx,Right iTBS,Cons,Clear,90,1,0,0.446068999939598,1
10854,139,Larynx,Right iTBS,Cons,Clear,91,4,1,0.532822799985297,1
10855,139,Larynx,Right iTBS,Cons,Clear,92,5,1,0.497338999994099,1
10856,139,Larynx,Right iTBS,Cons,Clear,93,4,1,0.5019990999717271,1
10857,139,Larynx,Right iTBS,Cons,Clear,94,4,1,0.6062563000014051,1
10858,139,Larynx,Right iTBS,Cons,Clear,95,5,1,0.5707724000094461,1
10859,139,Larynx,Right iTBS,Cons,Clear,96,2,0,0.555425599915907,1
10860,139,Larynx,Right iTBS,Cons,Clear,97,2,0,0.617729699937627,1
10861,139,Larynx,Right iTBS,Cons,Clear,98,5,1,0.6485803000396121,1
10862,139,Larynx,Right iTBS,Cons,Clear,99,3,1,0.753342600073665,1
10863,139,Larynx,Right iTBS,Cons,Clear,100,3,1,0.7394013999728491,1
10864,139,Larynx,Right iTBS,Cons,Clear,101,4,1,0.535280799958855,1
10865,139,Larynx,Right iTBS,Cons,Clear,102,2,0,0.6764095000689849,1
10866,139,Larynx,Right iTBS,Cons,Clear,103,2,0,0.6158615000313149,1
10867,139,Larynx,Right iTBS,Cons,Clear,104,1,0,0.5754031999967989,1
10868,139,Larynx,Right iTBS,Cons,Clear,105,4,1,0.519322000094689,1
10869,139,Larynx,Right iTBS,Cons,Clear,106,3,1,0.402659000013955,1
10870,139,Larynx,Right iTBS,Cons,Clear,107,3,1,0.475535299978219,1
10871,139,Larynx,Right iTBS,Cons,Clear,108,3,1,0.49416980007663397,1
10872,139,Larynx,Right iTBS,Cons,Clear,109,4,1,0.5065966000547629,1
10873,139,Larynx,Right iTBS,Cons,Clear,110,5,1,0.492928999941796,1
10874,139,Larynx,Right iTBS,Cons,Clear,111,2,0,0.596132099977694,1
10875,139,Larynx,Right iTBS,Cons,Clear,112,2,0,0.5141807000618429,1
10876,139,Larynx,Right iTBS,Cons,Clear,113,3,1,0.548839599941857,1
10877,139,Larynx,Right iTBS,Cons,Clear,114,3,1,0.456403699936345,1
10878,139,Larynx,Right iTBS,Cons,Clear,115,3,1,0.603750900016166,1
10879,139,Larynx,Right iTBS,Cons,Clear,116,1,0,0.504601799999364,1
10880,139,Larynx,Right iTBS,Cons,Clear,117,4,1,0.647870000102557,1
10881,139,Larynx,Right iTBS,Cons,Clear,118,2,1,0.508321900037117,1
10882,139,Larynx,Right iTBS,Cons,Clear,119,4,1,0.541361600044183,1
10883,139,Larynx,Right iTBS,Cons,Clear,120,2,0,0.7621326999505981,1
10884,139,Larynx,Right iTBS,Cons,Clear,121,3,1,0.765351600013673,1
10885,139,Larynx,Right iTBS,Cons,Clear,122,2,0,0.557131200097501,1
10886,139,Larynx,Right iTBS,Cons,Clear,123,5,1,0.9016363000264391,1
10887,139,Larynx,Right iTBS,Cons,Clear,124,3,1,0.6453571999445561,1
10888,139,Larynx,Right iTBS,Cons,Clear,125,5,1,0.600869399961084,1
10889,139,Larynx,Right iTBS,Cons,Clear,126,4,1,0.574119500000961,1
10890,139,Larynx,Right iTBS,Cons,Clear,127,4,1,0.47596079995855706,1
10891,139,Larynx,Right iTBS,Cons,Clear,128,1,0,0.572239300003275,1
10892,139,Larynx,Right iTBS,Cons,Clear,129,3,1,0.5421794999856501,1
10893,139,Larynx,Right iTBS,Cons,Clear,130,5,1,0.4691003999905661,1
10894,139,Larynx,Right iTBS,Cons,Clear,131,4,1,0.44782430003397206,1
10895,139,Larynx,Right iTBS,Cons,Clear,132,2,0,0.587758800014853,1
10896,139,Larynx,Right iTBS,Cons,Clear,133,3,1,0.538934399955906,1
10897,139,Larynx,Right iTBS,Cons,Clear,134,2,0,0.844484000001103,1
10898,139,Larynx,Right iTBS,Cons,Clear,135,5,1,0.679285799968056,1
10899,139,Larynx,Right iTBS,Cons,Clear,136,3,1,0.584948799922131,1
10900,139,Larynx,Right iTBS,Cons,Clear,137,3,1,0.639358199900016,1
10901,139,Larynx,Right iTBS,Cons,Clear,138,2,0,0.523762699915096,1
10902,139,Larynx,Right iTBS,Cons,Clear,139,1,0,0.45953779993578797,1
10903,139,Larynx,Right iTBS,Cons,Clear,140,4,0,0.431434199912474,1
10904,139,Larynx,Right iTBS,Cons,Clear,141,1,0,0.6778435000451278,1
10905,139,Larynx,Right iTBS,Cons,Clear,142,3,1,0.6416870000539351,1
10906,139,Larynx,Right iTBS,Cons,Clear,143,4,1,0.613954700063914,1
10907,139,Larynx,Right iTBS,Cons,Clear,144,4,1,0.547572499956004,1
10908,139,Larynx,Right iTBS,Cons,Clear,145,1,0,0.530346699990332,1
10909,139,Larynx,Right iTBS,Cons,Clear,146,2,0,0.6714391000568871,1
10910,139,Larynx,Right iTBS,Cons,Clear,147,3,1,0.49864830006845295,1
10911,139,Larynx,Right iTBS,Cons,Clear,148,5,1,0.5923368999501689,1
10912,139,Larynx,Right iTBS,Cons,Clear,149,4,1,0.8419847000623121,1
10913,139,Larynx,Right iTBS,Cons,Clear,150,5,1,0.8542523999931291,1
10914,139,Larynx,Right iTBS,Cons,Clear,151,3,0,0.930493399966508,1
10915,139,Larynx,Right iTBS,Cons,Clear,152,2,0,0.6813031999627129,1
10916,139,Larynx,Right iTBS,Cons,Clear,153,3,1,0.516723000095226,1
10917,139,Larynx,Right iTBS,Cons,Clear,154,3,1,0.4671495000366121,1
10918,139,Larynx,Right iTBS,Cons,Clear,155,1,0,0.6442034000065179,1
10919,139,Larynx,Right iTBS,Cons,Clear,156,1,1,0.531093399971724,1
12012,139,Larynx,Sham,Cons,Clear,1,3,1,0.968329900002573,1
12013,139,Larynx,Sham,Cons,Clear,2,4,1,0.601398500002688,1
12014,139,Larynx,Sham,Cons,Clear,3,2,0,0.7246889000016379,1
12015,139,Larynx,Sham,Cons,Clear,4,5,1,0.528023799997754,1
12016,139,Larynx,Sham,Cons,Clear,5,2,0,0.524122599999828,1
12017,139,Larynx,Sham,Cons,Clear,6,3,1,0.53264240000135,1
12018,139,Larynx,Sham,Cons,Clear,7,2,0,0.805061099999875,1
12019,139,Larynx,Sham,Cons,Clear,8,5,1,0.552242999998271,1
12020,139,Larynx,Sham,Cons,Clear,9,1,0,0.654955399993923,1
12021,139,Larynx,Sham,Cons,Clear,10,3,1,0.602785699993547,1
12022,139,Larynx,Sham,Cons,Clear,11,4,1,0.545939299998281,1
12023,139,Larynx,Sham,Cons,Clear,12,3,1,0.60819420000189,1
12024,139,Larynx,Sham,Cons,Clear,13,5,1,0.8143467999980201,1
12025,139,Larynx,Sham,Cons,Clear,14,4,1,0.5928856000027739,1
12026,139,Larynx,Sham,Cons,Clear,15,4,1,0.5571465000029999,1
12027,139,Larynx,Sham,Cons,Clear,16,2,0,0.556982399997651,1
12028,139,Larynx,Sham,Cons,Clear,17,4,1,0.559736800001701,1
12029,139,Larynx,Sham,Cons,Clear,18,3,1,0.62266030000319,1
12030,139,Larynx,Sham,Cons,Clear,19,1,0,0.6694419999985259,1
12031,139,Larynx,Sham,Cons,Clear,20,2,0,0.584172700000636,1
12032,139,Larynx,Sham,Cons,Clear,21,3,0,0.88652309999452,1
12033,139,Larynx,Sham,Cons,Clear,22,5,1,0.48325900000054406,1
12034,139,Larynx,Sham,Cons,Clear,23,4,1,0.4426711000051,1
12035,139,Larynx,Sham,Cons,Clear,24,1,0,0.560408199999074,1
12036,139,Larynx,Sham,Cons,Clear,25,5,1,0.609654899999441,1
12037,139,Larynx,Sham,Cons,Clear,26,2,0,0.550778199998604,1
12038,139,Larynx,Sham,Cons,Clear,27,3,1,0.506458200005,1
12039,139,Larynx,Sham,Cons,Clear,28,1,0,0.510163399994781,1
12040,139,Larynx,Sham,Cons,Clear,29,4,1,0.4519620999999461,1
12041,139,Larynx,Sham,Cons,Clear,30,1,0,0.584859400005371,1
12042,139,Larynx,Sham,Cons,Clear,31,1,0,0.6216775000066259,1
12043,139,Larynx,Sham,Cons,Clear,32,3,1,0.68018039999879,1
12044,139,Larynx,Sham,Cons,Clear,33,5,1,0.495297699999355,1
12045,139,Larynx,Sham,Cons,Clear,34,2,0,0.689144500000111,1
12046,139,Larynx,Sham,Cons,Clear,35,4,1,0.6693487000011371,1
12047,139,Larynx,Sham,Cons,Clear,36,2,0,0.6526125000018511,1
12048,139,Larynx,Sham,Cons,Clear,37,3,1,1.09362240000337,1
12049,139,Larynx,Sham,Cons,Clear,38,3,1,0.7711742999963459,1
12050,139,Larynx,Sham,Cons,Clear,39,3,0,0.5946065999960409,1
12051,139,Larynx,Sham,Cons,Clear,40,2,0,0.921949700001278,1
12052,139,Larynx,Sham,Cons,Clear,41,4,1,0.76539660000708,1
12053,139,Larynx,Sham,Cons,Clear,42,4,1,0.645663800001785,1
12054,139,Larynx,Sham,Cons,Clear,43,2,0,0.64778970000043,1
12055,139,Larynx,Sham,Cons,Clear,44,3,1,0.7205979999998822,1
12056,139,Larynx,Sham,Cons,Clear,45,3,1,0.874158899998292,1
12057,139,Larynx,Sham,Cons,Clear,46,1,0,0.659968100000697,1
12058,139,Larynx,Sham,Cons,Clear,47,4,0,0.7264058000000658,1
12059,139,Larynx,Sham,Cons,Clear,48,3,1,0.641113000005134,1
12060,139,Larynx,Sham,Cons,Clear,49,2,0,0.7122259000025221,1
12061,139,Larynx,Sham,Cons,Clear,50,5,1,0.7409410000036591,1
12062,139,Larynx,Sham,Cons,Clear,51,1,0,0.8751555999988342,1
12063,139,Larynx,Sham,Cons,Clear,52,5,1,1.0468858000022,1
12064,139,Larynx,Sham,Cons,Clear,53,4,1,0.8014314999963968,1
12065,139,Larynx,Sham,Cons,Clear,54,3,0,0.8727330999972759,1
12066,139,Larynx,Sham,Cons,Clear,55,1,0,0.8395368999990749,1
12067,139,Larynx,Sham,Cons,Clear,56,5,1,0.8527585999981969,1
12068,139,Larynx,Sham,Cons,Clear,57,3,1,0.835296999997809,1
12069,139,Larynx,Sham,Cons,Clear,58,4,1,0.6848069000043321,1
12070,139,Larynx,Sham,Cons,Clear,59,3,0,1.16964519999601,1
12071,139,Larynx,Sham,Cons,Clear,60,2,0,0.783213599999726,1
12072,139,Larynx,Sham,Cons,Clear,61,3,1,0.7047439000016309,1
12073,139,Larynx,Sham,Cons,Clear,62,3,1,0.877045199995337,1
12074,139,Larynx,Sham,Cons,Clear,63,2,0,0.943305599997984,1
12075,139,Larynx,Sham,Cons,Clear,64,5,1,1.03234519999387,1
12076,139,Larynx,Sham,Cons,Clear,65,5,1,0.9185557999953741,1
12077,139,Larynx,Sham,Cons,Clear,66,1,0,0.681786300003296,1
12078,139,Larynx,Sham,Cons,Clear,67,3,1,0.714188399993873,1
12079,139,Larynx,Sham,Cons,Clear,68,4,1,0.9618466999963861,1
12080,139,Larynx,Sham,Cons,Clear,69,2,0,0.546753899994656,1
12081,139,Larynx,Sham,Cons,Clear,70,3,0,0.900881900000968,1
12082,139,Larynx,Sham,Cons,Clear,71,3,1,0.909773599996697,1
12083,139,Larynx,Sham,Cons,Clear,72,2,0,0.529590099999041,1
12084,139,Larynx,Sham,Cons,Clear,73,1,0,0.596386299999722,1
12085,139,Larynx,Sham,Cons,Clear,74,4,1,0.762997999998333,1
12086,139,Larynx,Sham,Cons,Clear,75,5,1,0.63247820000106,1
12087,139,Larynx,Sham,Cons,Clear,76,1,0,0.867000899997947,1
12088,139,Larynx,Sham,Cons,Clear,77,2,0,0.632863600003475,1
12089,139,Larynx,Sham,Cons,Clear,78,4,1,0.623124799996731,1
12090,139,Larynx,Sham,Cons,Clear,79,3,1,0.632447899995896,1
12091,139,Larynx,Sham,Cons,Clear,80,4,1,0.557502900002874,1
12092,139,Larynx,Sham,Cons,Clear,81,2,0,0.802079699999013,1
12093,139,Larynx,Sham,Cons,Clear,82,1,0,0.624314900000172,1
12094,139,Larynx,Sham,Cons,Clear,83,1,0,0.555988600004639,1
12095,139,Larynx,Sham,Cons,Clear,84,3,1,0.628177600003255,1
12096,139,Larynx,Sham,Cons,Clear,85,3,1,0.824448700004723,1
12097,139,Larynx,Sham,Cons,Clear,86,5,1,0.566197799998918,1
12098,139,Larynx,Sham,Cons,Clear,87,5,0,0.6159310999937591,1
12099,139,Larynx,Sham,Cons,Clear,88,3,1,0.7643179000006061,1
12100,139,Larynx,Sham,Cons,Clear,89,3,0,0.993449099994905,1
12101,139,Larynx,Sham,Cons,Clear,90,3,1,0.51397839999845,1
12102,139,Larynx,Sham,Cons,Clear,91,4,1,0.731450599996606,1
12103,139,Larynx,Sham,Cons,Clear,92,2,0,0.609009799998603,1
12104,139,Larynx,Sham,Cons,Clear,93,3,1,0.9765750000005942,1
12105,139,Larynx,Sham,Cons,Clear,94,4,1,0.512596200002008,1
12106,139,Larynx,Sham,Cons,Clear,95,5,1,0.5617171999983841,1
12107,139,Larynx,Sham,Cons,Clear,96,4,0,0.8747965000002299,1
12108,139,Larynx,Sham,Cons,Clear,97,5,1,0.671839799993904,1
12109,139,Larynx,Sham,Cons,Clear,98,3,0,0.647811000002548,1
12110,139,Larynx,Sham,Cons,Clear,99,2,0,0.7102510999975491,1
12111,139,Larynx,Sham,Cons,Clear,100,3,1,0.62232010000298,1
12112,139,Larynx,Sham,Cons,Clear,101,4,1,0.7644982000056191,1
12113,139,Larynx,Sham,Cons,Clear,102,1,0,0.5711384000023829,1
12114,139,Larynx,Sham,Cons,Clear,103,1,0,0.618037100000947,1
12115,139,Larynx,Sham,Cons,Clear,104,2,0,0.8629686999993279,1
12116,139,Larynx,Sham,Cons,Clear,105,2,0,0.792755199996463,1
12117,139,Larynx,Sham,Cons,Clear,106,5,1,0.7874248999942208,1
12118,139,Larynx,Sham,Cons,Clear,107,4,1,0.552532299996528,1
12119,139,Larynx,Sham,Cons,Clear,108,2,0,0.631667300003755,1
12120,139,Larynx,Sham,Cons,Clear,109,4,1,0.922702200005006,1
12121,139,Larynx,Sham,Cons,Clear,110,2,0,0.7087833999976278,1
12122,139,Larynx,Sham,Cons,Clear,111,3,0,1.16422010000679,1
12123,139,Larynx,Sham,Cons,Clear,112,1,0,0.704203200002667,1
12124,139,Larynx,Sham,Cons,Clear,113,1,1,0.670949499995913,1
12125,139,Larynx,Sham,Cons,Clear,114,3,1,0.7588137999991891,1
12126,139,Larynx,Sham,Cons,Clear,115,4,1,0.832047700001567,1
12127,139,Larynx,Sham,Cons,Clear,116,2,0,0.546194200003811,1
12128,139,Larynx,Sham,Cons,Clear,117,5,1,0.5957711999944879,1
12129,139,Larynx,Sham,Cons,Clear,118,3,1,0.9443911999987901,1
12130,139,Larynx,Sham,Cons,Clear,119,3,1,0.847301300003892,1
12131,139,Larynx,Sham,Cons,Clear,120,2,0,0.8339955999981609,1
12132,139,Larynx,Sham,Cons,Clear,121,1,0,0.598437900000135,1
12133,139,Larynx,Sham,Cons,Clear,122,3,1,1.30916240000079,1
12134,139,Larynx,Sham,Cons,Clear,123,3,1,0.68555500000366,1
12135,139,Larynx,Sham,Cons,Clear,124,2,0,0.5996263000051839,1
12136,139,Larynx,Sham,Cons,Clear,125,1,0,0.5475564999942439,1
12137,139,Larynx,Sham,Cons,Clear,126,4,1,0.726198800002749,1
12138,139,Larynx,Sham,Cons,Clear,127,4,1,0.641467000001285,1
12139,139,Larynx,Sham,Cons,Clear,128,5,1,0.6606967000043371,1
12140,139,Larynx,Sham,Cons,Clear,129,5,1,0.6741419000027239,1
12141,139,Larynx,Sham,Cons,Clear,130,5,1,0.6691958000010351,1
12142,139,Larynx,Sham,Cons,Clear,131,3,1,1.08543189999909,1
12143,139,Larynx,Sham,Cons,Clear,132,1,0,0.600802499997371,1
12144,139,Larynx,Sham,Cons,Clear,133,1,0,0.526652100001229,1
12145,139,Larynx,Sham,Cons,Clear,134,2,0,0.760280599999533,1
12146,139,Larynx,Sham,Cons,Clear,135,2,0,0.6936103999978511,1
12147,139,Larynx,Sham,Cons,Clear,136,2,0,0.8233363999970609,1
12148,139,Larynx,Sham,Cons,Clear,137,5,1,0.553122699995583,1
12149,139,Larynx,Sham,Cons,Clear,138,5,1,0.46524990000034494,1
12150,139,Larynx,Sham,Cons,Clear,139,4,1,0.655148500001815,1
12151,139,Larynx,Sham,Cons,Clear,140,4,1,0.7699772999985731,1
12152,139,Larynx,Sham,Cons,Clear,141,2,0,0.6410217000011469,1
12153,139,Larynx,Sham,Cons,Clear,142,2,0,0.6459092000004599,1
12154,139,Larynx,Sham,Cons,Clear,143,4,1,0.6066567000016221,1
12155,139,Larynx,Sham,Cons,Clear,144,5,1,0.632545000000391,1
12156,139,Larynx,Sham,Cons,Clear,145,3,0,1.10120779999852,1
12157,139,Larynx,Sham,Cons,Clear,146,3,1,0.695023399995989,1
12158,139,Larynx,Sham,Cons,Clear,147,3,1,0.5998284000015699,1
12159,139,Larynx,Sham,Cons,Clear,148,3,1,0.711556299997028,1
12160,139,Larynx,Sham,Cons,Clear,149,3,1,0.7485393000024492,1
12161,139,Larynx,Sham,Cons,Clear,150,4,1,0.630388899997342,1
12162,139,Larynx,Sham,Cons,Clear,151,4,1,0.6055560999957379,1
12163,139,Larynx,Sham,Cons,Clear,152,4,1,0.6574451999986201,1
12164,139,Larynx,Sham,Cons,Clear,153,1,0,0.5648460000011261,1
12165,139,Larynx,Sham,Cons,Clear,154,3,1,0.45106620000296993,1
12166,139,Larynx,Sham,Cons,Clear,155,1,0,0.7268679999979208,1
12167,139,Larynx,Sham,Cons,Clear,156,2,1,0.7348360999967549,1
13884,142,Larynx,Right iTBS,Cons,Clear,1,5,1,0.878606500016758,1
13885,142,Larynx,Right iTBS,Cons,Clear,2,4,1,0.477528499992331,1
13886,142,Larynx,Right iTBS,Cons,Clear,3,5,1,0.48520480000297495,1
13887,142,Larynx,Right iTBS,Cons,Clear,4,1,0,0.4607267000246789,1
13888,142,Larynx,Right iTBS,Cons,Clear,5,3,1,0.5703257999848571,1
13889,142,Larynx,Right iTBS,Cons,Clear,6,2,1,0.4910028000012971,1
13890,142,Larynx,Right iTBS,Cons,Clear,7,3,1,0.596735599974636,1
13891,142,Larynx,Right iTBS,Cons,Clear,8,5,1,0.511837900005048,1
13892,142,Larynx,Right iTBS,Cons,Clear,9,2,0,0.5187945000070611,1
13893,142,Larynx,Right iTBS,Cons,Clear,10,4,1,0.562538199999835,1
13894,142,Larynx,Right iTBS,Cons,Clear,11,5,1,0.513690499996301,1
13895,142,Larynx,Right iTBS,Cons,Clear,12,2,0,0.502008099982049,1
13896,142,Larynx,Right iTBS,Cons,Clear,13,2,1,0.504228200006764,1
13897,142,Larynx,Right iTBS,Cons,Clear,14,4,1,0.506471200002125,1
13898,142,Larynx,Right iTBS,Cons,Clear,15,1,0,0.40003729998716203,1
13899,142,Larynx,Right iTBS,Cons,Clear,16,3,1,0.37061829998856394,1
13900,142,Larynx,Right iTBS,Cons,Clear,17,3,1,0.464552199991886,1
13901,142,Larynx,Right iTBS,Cons,Clear,18,3,1,0.513206500007072,1
13902,142,Larynx,Right iTBS,Cons,Clear,19,5,1,0.4828123000042979,1
13903,142,Larynx,Right iTBS,Cons,Clear,20,2,1,0.532113399996888,1
13904,142,Larynx,Right iTBS,Cons,Clear,21,1,0,0.46643129998119504,1
13905,142,Larynx,Right iTBS,Cons,Clear,22,2,1,0.6709698999766259,1
13906,142,Larynx,Right iTBS,Cons,Clear,23,4,1,0.505723000009311,1
13907,142,Larynx,Right iTBS,Cons,Clear,24,3,1,0.5926992000022441,1
13908,142,Larynx,Right iTBS,Cons,Clear,25,4,1,0.594954700005474,1
13909,142,Larynx,Right iTBS,Cons,Clear,26,1,0,0.43247050000354603,1
13910,142,Larynx,Right iTBS,Cons,Clear,27,5,1,0.491228099999717,1
13911,142,Larynx,Right iTBS,Cons,Clear,28,1,0,0.407346699998016,1
13912,142,Larynx,Right iTBS,Cons,Clear,29,2,1,0.443004700005986,1
13913,142,Larynx,Right iTBS,Cons,Clear,30,3,1,0.549353299982613,1
13914,142,Larynx,Right iTBS,Cons,Clear,31,4,1,0.513775500003248,1
13915,142,Larynx,Right iTBS,Cons,Clear,32,3,1,0.583369799976936,1
13916,142,Larynx,Right iTBS,Cons,Clear,33,1,0,0.542966399982106,1
13917,142,Larynx,Right iTBS,Cons,Clear,34,4,1,0.729445999983,1
13918,142,Larynx,Right iTBS,Cons,Clear,35,3,1,0.5761509000149089,1
13919,142,Larynx,Right iTBS,Cons,Clear,36,2,0,0.6218721999903211,1
13920,142,Larynx,Right iTBS,Cons,Clear,37,3,1,0.5384404000069479,1
13921,142,Larynx,Right iTBS,Cons,Clear,38,4,1,0.688044600014109,1
13922,142,Larynx,Right iTBS,Cons,Clear,39,3,0,0.7747245000209659,1
13923,142,Larynx,Right iTBS,Cons,Clear,40,4,1,0.584101199987344,1
13924,142,Larynx,Right iTBS,Cons,Clear,41,2,0,0.579660799994599,1
13925,142,Larynx,Right iTBS,Cons,Clear,42,2,0,0.893720499996562,1
13926,142,Larynx,Right iTBS,Cons,Clear,43,3,1,0.8684759000025221,1
13927,142,Larynx,Right iTBS,Cons,Clear,44,3,1,0.6136455999803729,1
13928,142,Larynx,Right iTBS,Cons,Clear,45,3,1,0.5389468999928789,1
13929,142,Larynx,Right iTBS,Cons,Clear,46,4,1,0.6170141000184229,1
13930,142,Larynx,Right iTBS,Cons,Clear,47,1,0,0.539218699996127,1
13931,142,Larynx,Right iTBS,Cons,Clear,48,1,1,0.899980199988931,1
13932,142,Larynx,Right iTBS,Cons,Clear,49,2,0,0.409527399984654,1
13933,142,Larynx,Right iTBS,Cons,Clear,50,2,0,0.741193599998951,1
13934,142,Larynx,Right iTBS,Cons,Clear,51,4,1,0.401171200006502,1
13935,142,Larynx,Right iTBS,Cons,Clear,52,5,1,0.746247700008098,1
13936,142,Larynx,Right iTBS,Cons,Clear,53,5,1,0.65507389997947,1
13937,142,Larynx,Right iTBS,Cons,Clear,54,3,0,0.854633400012972,1
13938,142,Larynx,Right iTBS,Cons,Clear,55,2,0,0.7421957000042309,1
13939,142,Larynx,Right iTBS,Cons,Clear,56,4,1,0.7103164000145631,1
13940,142,Larynx,Right iTBS,Cons,Clear,57,1,0,0.691294199990807,1
13941,142,Larynx,Right iTBS,Cons,Clear,58,1,0,0.859026999998605,1
13942,142,Larynx,Right iTBS,Cons,Clear,59,3,1,0.661124899983406,1
13943,142,Larynx,Right iTBS,Cons,Clear,60,3,1,0.6418405000003989,1
13944,142,Larynx,Right iTBS,Cons,Clear,61,2,0,0.663501100003487,1
13945,142,Larynx,Right iTBS,Cons,Clear,62,5,1,0.5241269999824,1
13946,142,Larynx,Right iTBS,Cons,Clear,63,4,1,0.5384779000014529,1
13947,142,Larynx,Right iTBS,Cons,Clear,64,5,1,0.5307295999955389,1
13948,142,Larynx,Right iTBS,Cons,Clear,65,3,1,0.5854047000175339,1
13949,142,Larynx,Right iTBS,Cons,Clear,66,4,1,0.534319300000789,1
13950,142,Larynx,Right iTBS,Cons,Clear,67,3,0,0.705388500005938,1
13951,142,Larynx,Right iTBS,Cons,Clear,68,1,0,0.549227900017286,1
13952,142,Larynx,Right iTBS,Cons,Clear,69,5,1,0.5746362000063531,1
13953,142,Larynx,Right iTBS,Cons,Clear,70,1,0,0.443434999993769,1
13954,142,Larynx,Right iTBS,Cons,Clear,71,3,1,0.49781770000117803,1
13955,142,Larynx,Right iTBS,Cons,Clear,72,5,1,0.609062600007746,1
13956,142,Larynx,Right iTBS,Cons,Clear,73,3,0,0.578937699989183,1
13957,142,Larynx,Right iTBS,Cons,Clear,74,3,1,0.48729810002259905,1
13958,142,Larynx,Right iTBS,Cons,Clear,75,2,0,0.610096599993994,1
13959,142,Larynx,Right iTBS,Cons,Clear,76,4,1,0.47135269999853296,1
13960,142,Larynx,Right iTBS,Cons,Clear,77,2,1,0.6880414999905041,1
13961,142,Larynx,Right iTBS,Cons,Clear,78,4,1,0.8214304000139241,1
13962,142,Larynx,Right iTBS,Cons,Clear,79,2,0,0.589726800011704,1
13963,142,Larynx,Right iTBS,Cons,Clear,80,3,0,1.0055098000157199,1
13964,142,Larynx,Right iTBS,Cons,Clear,81,5,1,0.435727300005965,1
13965,142,Larynx,Right iTBS,Cons,Clear,82,4,0,0.9080108999914959,1
13966,142,Larynx,Right iTBS,Cons,Clear,83,1,0,0.682420999975875,1
13967,142,Larynx,Right iTBS,Cons,Clear,84,2,0,0.689485100010643,1
13968,142,Larynx,Right iTBS,Cons,Clear,85,5,1,0.484871099994052,1
13969,142,Larynx,Right iTBS,Cons,Clear,86,1,0,0.807488399994327,1
13970,142,Larynx,Right iTBS,Cons,Clear,87,3,1,0.673120199993718,1
13971,142,Larynx,Right iTBS,Cons,Clear,88,1,0,0.516067400021711,1
13972,142,Larynx,Right iTBS,Cons,Clear,89,3,1,0.569025400007376,1
13973,142,Larynx,Right iTBS,Cons,Clear,90,1,0,0.606925100000808,1
13974,142,Larynx,Right iTBS,Cons,Clear,91,4,1,0.5318460999988021,1
13975,142,Larynx,Right iTBS,Cons,Clear,92,5,0,0.594918399991002,1
13976,142,Larynx,Right iTBS,Cons,Clear,93,4,1,0.5845589999808001,1
13977,142,Larynx,Right iTBS,Cons,Clear,94,4,1,0.577711999998428,1
13978,142,Larynx,Right iTBS,Cons,Clear,95,5,1,0.55110589999822,1
13979,142,Larynx,Right iTBS,Cons,Clear,96,2,0,0.586688899988076,1
13980,142,Larynx,Right iTBS,Cons,Clear,97,2,0,0.7943927999876909,1
13981,142,Larynx,Right iTBS,Cons,Clear,98,5,1,0.6381422000122261,1
13982,142,Larynx,Right iTBS,Cons,Clear,99,3,0,0.899071400024695,1
13983,142,Larynx,Right iTBS,Cons,Clear,100,3,1,0.5282714000204579,1
13984,142,Larynx,Right iTBS,Cons,Clear,101,4,1,0.7055327999987641,1
13985,142,Larynx,Right iTBS,Cons,Clear,102,2,0,0.615615600021556,1
13986,142,Larynx,Right iTBS,Cons,Clear,103,2,0,0.701278399996227,1
13987,142,Larynx,Right iTBS,Cons,Clear,104,1,0,0.613068600010592,1
13988,142,Larynx,Right iTBS,Cons,Clear,105,4,1,0.9200741999957242,1
13989,142,Larynx,Right iTBS,Cons,Clear,106,3,0,0.842457700025989,1
13990,142,Larynx,Right iTBS,Cons,Clear,107,3,1,0.582541000010679,1
13991,142,Larynx,Right iTBS,Cons,Clear,108,3,1,0.6939743999973871,1
13992,142,Larynx,Right iTBS,Cons,Clear,109,4,1,0.501311700005317,1
13993,142,Larynx,Right iTBS,Cons,Clear,110,5,1,0.6420695999986489,1
13994,142,Larynx,Right iTBS,Cons,Clear,111,2,0,0.8964105999912141,1
13995,142,Larynx,Right iTBS,Cons,Clear,112,2,0,0.69150630000513,1
13996,142,Larynx,Right iTBS,Cons,Clear,113,3,1,1.06471010000678,1
13997,142,Larynx,Right iTBS,Cons,Clear,114,3,1,0.60773469999549,1
13998,142,Larynx,Right iTBS,Cons,Clear,115,3,1,0.7194043000054079,1
13999,142,Larynx,Right iTBS,Cons,Clear,116,1,0,0.74796380000771,1
14000,142,Larynx,Right iTBS,Cons,Clear,117,4,1,0.7491881999885659,1
14001,142,Larynx,Right iTBS,Cons,Clear,118,2,0,0.796475200011628,1
14002,142,Larynx,Right iTBS,Cons,Clear,119,4,1,0.620724199980032,1
14003,142,Larynx,Right iTBS,Cons,Clear,120,2,0,0.741079300001729,1
14004,142,Larynx,Right iTBS,Cons,Clear,121,3,1,0.8941394999856129,1
14005,142,Larynx,Right iTBS,Cons,Clear,122,2,1,0.7177732000127429,1
14006,142,Larynx,Right iTBS,Cons,Clear,123,5,1,0.7193563999899201,1
14007,142,Larynx,Right iTBS,Cons,Clear,124,3,1,0.620075900020311,1
14008,142,Larynx,Right iTBS,Cons,Clear,125,5,1,0.591570399992634,1
14009,142,Larynx,Right iTBS,Cons,Clear,126,4,1,0.5936997999961021,1
14010,142,Larynx,Right iTBS,Cons,Clear,127,4,1,0.567551999993157,1
14011,142,Larynx,Right iTBS,Cons,Clear,128,1,0,0.545003400009591,1
14012,142,Larynx,Right iTBS,Cons,Clear,129,3,1,0.713535199989565,1
14013,142,Larynx,Right iTBS,Cons,Clear,130,5,1,0.684714100003475,1
14014,142,Larynx,Right iTBS,Cons,Clear,131,4,1,0.6118175000010521,1
14015,142,Larynx,Right iTBS,Cons,Clear,132,2,0,0.925700299994787,1
14016,142,Larynx,Right iTBS,Cons,Clear,133,3,1,0.660739200015087,1
14017,142,Larynx,Right iTBS,Cons,Clear,134,2,1,1.02110459998949,1
14018,142,Larynx,Right iTBS,Cons,Clear,135,5,1,0.5225576999946501,1
14019,142,Larynx,Right iTBS,Cons,Clear,136,3,1,0.563887900003465,1
14020,142,Larynx,Right iTBS,Cons,Clear,137,3,1,0.696476199984318,1
14021,142,Larynx,Right iTBS,Cons,Clear,138,2,0,0.7031042999878989,1
14022,142,Larynx,Right iTBS,Cons,Clear,139,1,0,0.6955763000005389,1
14023,142,Larynx,Right iTBS,Cons,Clear,140,4,1,0.942800800024997,1
14024,142,Larynx,Right iTBS,Cons,Clear,141,1,0,0.521097699995153,1
14025,142,Larynx,Right iTBS,Cons,Clear,142,3,0,0.753659800015157,1
14026,142,Larynx,Right iTBS,Cons,Clear,143,4,1,0.7007152999867691,1
14027,142,Larynx,Right iTBS,Cons,Clear,144,4,1,0.572576500009745,1
14028,142,Larynx,Right iTBS,Cons,Clear,145,1,0,0.6490763999754561,1
14029,142,Larynx,Right iTBS,Cons,Clear,146,2,0,0.855700099986279,1
14030,142,Larynx,Right iTBS,Cons,Clear,147,3,1,0.703704599989578,1
14031,142,Larynx,Right iTBS,Cons,Clear,148,5,1,0.693920000019716,1
14032,142,Larynx,Right iTBS,Cons,Clear,149,4,1,0.576258899993263,1
14033,142,Larynx,Right iTBS,Cons,Clear,150,5,1,0.6208562999963759,1
14034,142,Larynx,Right iTBS,Cons,Clear,151,3,1,0.878404099988984,1
14035,142,Larynx,Right iTBS,Cons,Clear,152,2,0,0.667325600021286,1
14036,142,Larynx,Right iTBS,Cons,Clear,153,3,1,0.7386143000039741,1
14037,142,Larynx,Right iTBS,Cons,Clear,154,3,1,0.7714160000032281,1
14038,142,Larynx,Right iTBS,Cons,Clear,155,1,0,0.485091499984264,1
14039,142,Larynx,Right iTBS,Cons,Clear,156,1,0,0.564829100010684,1
15132,142,Larynx,Sham,Cons,Clear,1,3,1,0.556075799999235,1
15133,142,Larynx,Sham,Cons,Clear,2,4,1,0.6121361000004979,1
15134,142,Larynx,Sham,Cons,Clear,3,4,1,0.461367300002166,1
15135,142,Larynx,Sham,Cons,Clear,4,5,1,0.542899300002318,1
15136,142,Larynx,Sham,Cons,Clear,5,4,1,0.508632799999759,1
15137,142,Larynx,Sham,Cons,Clear,6,4,1,0.566834400000516,1
15138,142,Larynx,Sham,Cons,Clear,7,5,1,0.532555499998125,1
15139,142,Larynx,Sham,Cons,Clear,8,5,1,1.14910210000016,1
15140,142,Larynx,Sham,Cons,Clear,9,1,0,0.679281099997752,1
15141,142,Larynx,Sham,Cons,Clear,10,3,1,0.7212709000013999,1
15142,142,Larynx,Sham,Cons,Clear,11,5,1,0.580508500002907,1
15143,142,Larynx,Sham,Cons,Clear,12,2,0,0.7713614999993299,1
15144,142,Larynx,Sham,Cons,Clear,13,3,0,0.780464900002698,1
15145,142,Larynx,Sham,Cons,Clear,14,1,0,0.503642100000434,1
15146,142,Larynx,Sham,Cons,Clear,15,1,0,0.522848199998407,1
15147,142,Larynx,Sham,Cons,Clear,16,2,1,0.5671289999991129,1
15148,142,Larynx,Sham,Cons,Clear,17,3,1,0.731044000000111,1
15149,142,Larynx,Sham,Cons,Clear,18,1,0,0.47095660000195505,1
15150,142,Larynx,Sham,Cons,Clear,19,3,1,0.641048100002081,1
15151,142,Larynx,Sham,Cons,Clear,20,3,1,0.6539682000002359,1
15152,142,Larynx,Sham,Cons,Clear,21,3,0,0.71960559999934,1
15153,142,Larynx,Sham,Cons,Clear,22,4,1,0.560139000001072,1
15154,142,Larynx,Sham,Cons,Clear,23,4,1,0.5050655000013651,1
15155,142,Larynx,Sham,Cons,Clear,24,5,1,0.646535399999266,1
15156,142,Larynx,Sham,Cons,Clear,25,3,0,0.5915338999984671,1
15157,142,Larynx,Sham,Cons,Clear,26,3,1,0.628899800001818,1
15158,142,Larynx,Sham,Cons,Clear,27,3,0,0.557101800000964,1
15159,142,Larynx,Sham,Cons,Clear,28,1,0,0.660137099999702,1
15160,142,Larynx,Sham,Cons,Clear,29,4,1,0.543300100001943,1
15161,142,Larynx,Sham,Cons,Clear,30,2,0,0.502072499999485,1
15162,142,Larynx,Sham,Cons,Clear,31,2,0,0.844994499999302,1
15163,142,Larynx,Sham,Cons,Clear,32,3,1,0.529799100000673,1
15164,142,Larynx,Sham,Cons,Clear,33,4,1,0.7255267000000459,1
15165,142,Larynx,Sham,Cons,Clear,34,5,1,0.5707524999997989,1
15166,142,Larynx,Sham,Cons,Clear,35,2,0,0.548212199999398,1
15167,142,Larynx,Sham,Cons,Clear,36,2,0,0.63633149999805,1
15168,142,Larynx,Sham,Cons,Clear,37,2,1,0.5703360000006801,1
15169,142,Larynx,Sham,Cons,Clear,38,1,0,0.730581299998448,1
15170,142,Larynx,Sham,Cons,Clear,39,2,0,0.7509396999994351,1
15171,142,Larynx,Sham,Cons,Clear,40,4,1,0.4697431999993571,1
15172,142,Larynx,Sham,Cons,Clear,41,3,1,0.9758123999999949,1
15173,142,Larynx,Sham,Cons,Clear,42,4,1,0.6469060000017629,1
15174,142,Larynx,Sham,Cons,Clear,43,1,0,0.638489900000422,1
15175,142,Larynx,Sham,Cons,Clear,44,1,0,0.505169000000024,1
15176,142,Larynx,Sham,Cons,Clear,45,2,0,0.6328907000024631,1
15177,142,Larynx,Sham,Cons,Clear,46,4,1,0.9570526999996221,1
15178,142,Larynx,Sham,Cons,Clear,47,4,0,0.687394500000664,1
15179,142,Larynx,Sham,Cons,Clear,48,5,1,0.939267999998265,1
15180,142,Larynx,Sham,Cons,Clear,49,4,1,0.572082099999534,1
15181,142,Larynx,Sham,Cons,Clear,50,2,0,0.5087850999989311,1
15182,142,Larynx,Sham,Cons,Clear,51,1,0,0.6890944999977359,1
15183,142,Larynx,Sham,Cons,Clear,52,3,1,0.800444999997126,1
15184,142,Larynx,Sham,Cons,Clear,53,5,1,0.834596600001532,1
15185,142,Larynx,Sham,Cons,Clear,54,2,0,0.7062295000032459,1
15186,142,Larynx,Sham,Cons,Clear,55,2,0,0.626545599996462,1
15187,142,Larynx,Sham,Cons,Clear,56,3,1,0.6672032000024051,1
15188,142,Larynx,Sham,Cons,Clear,57,5,1,0.7614646000001809,1
15189,142,Larynx,Sham,Cons,Clear,58,3,0,0.7191284999971691,1
15190,142,Larynx,Sham,Cons,Clear,59,3,1,0.522141400000692,1
15191,142,Larynx,Sham,Cons,Clear,60,2,0,0.7640837999970241,1
15192,142,Larynx,Sham,Cons,Clear,61,3,1,0.49431550000008395,1
15193,142,Larynx,Sham,Cons,Clear,62,4,1,0.536109299999225,1
15194,142,Larynx,Sham,Cons,Clear,63,3,1,0.534142299999075,1
15195,142,Larynx,Sham,Cons,Clear,64,5,1,0.551499199998943,1
15196,142,Larynx,Sham,Cons,Clear,65,3,0,0.610712899997452,1
15197,142,Larynx,Sham,Cons,Clear,66,3,1,0.546110199997202,1
15198,142,Larynx,Sham,Cons,Clear,67,4,1,0.6053524000017211,1
15199,142,Larynx,Sham,Cons,Clear,68,1,0,0.45377809999990903,1
15200,142,Larynx,Sham,Cons,Clear,69,3,1,0.40135759999975607,1
15201,142,Larynx,Sham,Cons,Clear,70,5,1,0.6464684000020501,1
15202,142,Larynx,Sham,Cons,Clear,71,3,1,0.528922800000146,1
15203,142,Larynx,Sham,Cons,Clear,72,4,1,0.9097983000028759,1
15204,142,Larynx,Sham,Cons,Clear,73,5,1,0.7705052999990579,1
15205,142,Larynx,Sham,Cons,Clear,74,2,0,0.51840920000177,1
15206,142,Larynx,Sham,Cons,Clear,75,1,0,0.503255599996919,1
15207,142,Larynx,Sham,Cons,Clear,76,2,0,0.6708225999973371,1
15208,142,Larynx,Sham,Cons,Clear,77,1,0,0.611634900000354,1
15209,142,Larynx,Sham,Cons,Clear,78,2,0,0.5835279000020821,1
15210,142,Larynx,Sham,Cons,Clear,79,5,1,0.425576599998749,1
15211,142,Larynx,Sham,Cons,Clear,80,2,0,0.6992586000014851,1
15212,142,Larynx,Sham,Cons,Clear,81,2,0,0.6388522000015661,1
15213,142,Larynx,Sham,Cons,Clear,82,2,0,0.666051600001083,1
15214,142,Larynx,Sham,Cons,Clear,83,4,1,0.46665270000084996,1
15215,142,Larynx,Sham,Cons,Clear,84,2,0,0.6253066999997829,1
15216,142,Larynx,Sham,Cons,Clear,85,2,0,0.6084227999999711,1
15217,142,Larynx,Sham,Cons,Clear,86,1,0,0.568553299999621,1
15218,142,Larynx,Sham,Cons,Clear,87,5,1,0.6734729000017979,1
15219,142,Larynx,Sham,Cons,Clear,88,5,1,0.8190954000019699,1
15220,142,Larynx,Sham,Cons,Clear,89,3,0,0.760494800000743,1
15221,142,Larynx,Sham,Cons,Clear,90,3,1,0.598821899999166,1
15222,142,Larynx,Sham,Cons,Clear,91,3,1,0.6638931999987111,1
15223,142,Larynx,Sham,Cons,Clear,92,4,1,0.677042200000869,1
15224,142,Larynx,Sham,Cons,Clear,93,4,1,0.547712299998238,1
15225,142,Larynx,Sham,Cons,Clear,94,5,1,0.652937799997744,1
15226,142,Larynx,Sham,Cons,Clear,95,4,1,0.576326099999278,1
15227,142,Larynx,Sham,Cons,Clear,96,5,1,0.688476600000286,1
15228,142,Larynx,Sham,Cons,Clear,97,1,0,0.679985700000543,1
15229,142,Larynx,Sham,Cons,Clear,98,3,1,1.1320367999978798,1
15230,142,Larynx,Sham,Cons,Clear,99,1,0,0.552991700002167,1
15231,142,Larynx,Sham,Cons,Clear,100,3,1,0.438754300001165,1
15232,142,Larynx,Sham,Cons,Clear,101,1,0,0.5115941000003661,1
15233,142,Larynx,Sham,Cons,Clear,102,4,1,0.430973899998207,1
15234,142,Larynx,Sham,Cons,Clear,103,3,0,0.8214603999986141,1
15235,142,Larynx,Sham,Cons,Clear,104,4,1,0.441500999997515,1
15236,142,Larynx,Sham,Cons,Clear,105,2,0,0.572031399999105,1
15237,142,Larynx,Sham,Cons,Clear,106,3,1,0.557421300003625,1
15238,142,Larynx,Sham,Cons,Clear,107,3,1,0.683097899996937,1
15239,142,Larynx,Sham,Cons,Clear,108,5,1,0.6744103000019089,1
15240,142,Larynx,Sham,Cons,Clear,109,3,0,0.9040806999983029,1
15241,142,Larynx,Sham,Cons,Clear,110,2,0,0.808880299999146,1
15242,142,Larynx,Sham,Cons,Clear,111,1,0,0.591128500000195,1
15243,142,Larynx,Sham,Cons,Clear,112,4,1,0.681439500000124,1
15244,142,Larynx,Sham,Cons,Clear,113,3,1,0.7177445999986959,1
15245,142,Larynx,Sham,Cons,Clear,114,4,1,0.663535200001206,1
15246,142,Larynx,Sham,Cons,Clear,115,1,0,0.5907213999998929,1
15247,142,Larynx,Sham,Cons,Clear,116,2,0,0.652258499998425,1
15248,142,Larynx,Sham,Cons,Clear,117,3,1,0.601586500000849,1
15249,142,Larynx,Sham,Cons,Clear,118,1,0,0.43884640000033,1
15250,142,Larynx,Sham,Cons,Clear,119,3,1,0.5016435000034111,1
15251,142,Larynx,Sham,Cons,Clear,120,1,0,0.516758699999627,1
15252,142,Larynx,Sham,Cons,Clear,121,3,1,0.424269999999524,1
15253,142,Larynx,Sham,Cons,Clear,122,2,1,0.647660800001177,1
15254,142,Larynx,Sham,Cons,Clear,123,4,1,0.7505473999990501,1
15255,142,Larynx,Sham,Cons,Clear,124,4,1,0.5948056999986869,1
15256,142,Larynx,Sham,Cons,Clear,125,3,1,0.860292299999855,1
15257,142,Larynx,Sham,Cons,Clear,126,3,1,0.7487202000011169,1
15258,142,Larynx,Sham,Cons,Clear,127,2,0,0.5400616000006271,1
15259,142,Larynx,Sham,Cons,Clear,128,4,1,0.5924715000001021,1
15260,142,Larynx,Sham,Cons,Clear,129,5,1,0.685124100000394,1
15261,142,Larynx,Sham,Cons,Clear,130,2,0,0.5996588999987579,1
15262,142,Larynx,Sham,Cons,Clear,131,1,0,0.540347499998461,1
15263,142,Larynx,Sham,Cons,Clear,132,2,0,0.785832199999277,1
15264,142,Larynx,Sham,Cons,Clear,133,5,1,0.543379200000345,1
15265,142,Larynx,Sham,Cons,Clear,134,3,0,0.610589300002175,1
15266,142,Larynx,Sham,Cons,Clear,135,3,1,0.626920999999129,1
15267,142,Larynx,Sham,Cons,Clear,136,3,0,0.549788200001785,1
15268,142,Larynx,Sham,Cons,Clear,137,2,0,0.9536135999987891,1
15269,142,Larynx,Sham,Cons,Clear,138,3,1,0.5744145999997271,1
15270,142,Larynx,Sham,Cons,Clear,139,4,1,0.814684099997976,1
15271,142,Larynx,Sham,Cons,Clear,140,3,1,0.8828484000005121,1
15272,142,Larynx,Sham,Cons,Clear,141,4,1,0.690249800001766,1
15273,142,Larynx,Sham,Cons,Clear,142,1,0,0.7089027000001809,1
15274,142,Larynx,Sham,Cons,Clear,143,5,1,0.629913699998724,1
15275,142,Larynx,Sham,Cons,Clear,144,2,0,0.558288700001867,1
15276,142,Larynx,Sham,Cons,Clear,145,3,1,0.6077296000003121,1
15277,142,Larynx,Sham,Cons,Clear,146,4,1,0.729061800000636,1
15278,142,Larynx,Sham,Cons,Clear,147,1,0,0.7456076999988,1
15279,142,Larynx,Sham,Cons,Clear,148,1,0,0.861547399999836,1
15280,142,Larynx,Sham,Cons,Clear,149,2,0,0.626924800002598,1
15281,142,Larynx,Sham,Cons,Clear,150,5,1,0.6598634000001771,1
15282,142,Larynx,Sham,Cons,Clear,151,5,1,0.6216482000018001,1
15283,142,Larynx,Sham,Cons,Clear,152,5,1,0.6678327000008721,1
15284,142,Larynx,Sham,Cons,Clear,153,4,1,0.62129780000032,1
15285,142,Larynx,Sham,Cons,Clear,154,3,0,0.586118100000022,1
15286,142,Larynx,Sham,Cons,Clear,155,2,0,0.6799238999992672,1
15287,142,Larynx,Sham,Cons,Clear,156,4,1,0.62818630000038,1
17004,201,Larynx,Right iTBS,Cons,Clear,1,4,1,0.8684035000624141,1
17005,201,Larynx,Right iTBS,Cons,Clear,2,3,1,0.649238700047135,1
17006,201,Larynx,Right iTBS,Cons,Clear,3,4,1,0.6730033999774611,1
17007,201,Larynx,Right iTBS,Cons,Clear,4,5,1,0.7029062999645249,1
17008,201,Larynx,Right iTBS,Cons,Clear,5,2,1,0.6442635999992491,1
17009,201,Larynx,Right iTBS,Cons,Clear,6,1,0,0.597961900057271,1
17010,201,Larynx,Right iTBS,Cons,Clear,7,2,0,0.616202099947259,1
17011,201,Larynx,Right iTBS,Cons,Clear,8,4,1,1.02125910005998,1
17012,201,Larynx,Right iTBS,Cons,Clear,9,1,0,0.54278889996931,1
17013,201,Larynx,Right iTBS,Cons,Clear,10,3,1,0.680916500044987,1
17014,201,Larynx,Right iTBS,Cons,Clear,11,4,1,0.603258699993603,1
17015,201,Larynx,Right iTBS,Cons,Clear,12,1,0,0.593440900091082,1
17016,201,Larynx,Right iTBS,Cons,Clear,13,5,1,0.6256289999000729,1
17017,201,Larynx,Right iTBS,Cons,Clear,14,3,1,0.5807767999358481,1
17018,201,Larynx,Right iTBS,Cons,Clear,15,3,1,0.6004569999640811,1
17019,201,Larynx,Right iTBS,Cons,Clear,16,5,1,0.566506800008938,1
17020,201,Larynx,Right iTBS,Cons,Clear,17,2,1,0.540768799954094,1
17021,201,Larynx,Right iTBS,Cons,Clear,18,2,1,0.470427099964581,1
17022,201,Larynx,Right iTBS,Cons,Clear,19,3,1,0.555083400104195,1
17023,201,Larynx,Right iTBS,Cons,Clear,20,4,1,0.44286590011324706,1
17024,201,Larynx,Right iTBS,Cons,Clear,21,3,1,0.541256799944676,1
17025,201,Larynx,Right iTBS,Cons,Clear,22,4,1,0.50618939998094,1
17026,201,Larynx,Right iTBS,Cons,Clear,23,1,0,0.780886500026099,1
17027,201,Larynx,Right iTBS,Cons,Clear,24,3,1,0.566349400090985,1
17028,201,Larynx,Right iTBS,Cons,Clear,25,2,1,0.5754467999795451,1
17029,201,Larynx,Right iTBS,Cons,Clear,26,3,1,0.638342900085263,1
