,subj_idx,group_idx,turn_type,task_type,snr_type,trial_num,step_att,response,rt,step_unatnd
936,55,Larynx,Left cTBS,Tone,Noise,1,1,1,2.09143970001605,1
937,55,Larynx,Left cTBS,Tone,Noise,2,3,1,1.2406935000035402,1
938,55,Larynx,Left cTBS,Tone,Noise,3,2,0,0.807820299989544,1
939,55,Larynx,Left cTBS,Tone,Noise,4,3,1,0.657185399992159,1
940,55,Larynx,Left cTBS,Tone,Noise,5,3,1,0.594941800023662,1
941,55,Larynx,Left cTBS,Tone,Noise,6,2,1,0.785241100005805,1
942,55,Larynx,Left cTBS,Tone,Noise,7,5,1,0.7557681000034789,1
943,55,Larynx,Left cTBS,Tone,Noise,8,1,0,0.788189199985936,1
944,55,Larynx,Left cTBS,Tone,Noise,9,3,1,0.644714499998372,1
945,55,Larynx,Left cTBS,Tone,Noise,10,1,1,0.754421299992828,1
946,55,Larynx,Left cTBS,Tone,Noise,11,2,1,0.64617220000946,1
947,55,Larynx,Left cTBS,Tone,Noise,12,2,0,0.6411615000106391,1
948,55,Larynx,Left cTBS,Tone,Noise,13,5,1,0.5206312999944199,1
949,55,Larynx,Left cTBS,Tone,Noise,14,5,1,0.82759659999283,1
950,55,Larynx,Left cTBS,Tone,Noise,15,4,1,0.8395086000091401,1
951,55,Larynx,Left cTBS,Tone,Noise,16,1,0,0.61245109999436,1
952,55,Larynx,Left cTBS,Tone,Noise,17,4,1,0.8682188999955541,1
953,55,Larynx,Left cTBS,Tone,Noise,18,3,1,1.28343029998359,1
954,55,Larynx,Left cTBS,Tone,Noise,19,3,1,0.728652899997542,1
955,55,Larynx,Left cTBS,Tone,Noise,20,4,0,0.6650774000154339,1
956,55,Larynx,Left cTBS,Tone,Noise,21,1,1,0.7602696999965699,1
957,55,Larynx,Left cTBS,Tone,Noise,22,4,1,0.688748199987458,1
958,55,Larynx,Left cTBS,Tone,Noise,23,4,1,0.6412913999811279,1
959,55,Larynx,Left cTBS,Tone,Noise,24,3,1,0.985285400005523,1
960,55,Larynx,Left cTBS,Tone,Noise,25,2,0,0.566468200006057,1
961,55,Larynx,Left cTBS,Tone,Noise,26,4,0,1.28162790002534,1
962,55,Larynx,Left cTBS,Tone,Noise,27,2,0,0.8226326000003609,1
963,55,Larynx,Left cTBS,Tone,Noise,28,2,0,0.7295763999863991,1
964,55,Larynx,Left cTBS,Tone,Noise,29,3,1,0.6884342999837829,1
965,55,Larynx,Left cTBS,Tone,Noise,30,4,1,0.6927837999828629,1
966,55,Larynx,Left cTBS,Tone,Noise,31,5,0,0.6932910000032281,1
967,55,Larynx,Left cTBS,Tone,Noise,32,2,0,0.707313100021565,1
968,55,Larynx,Left cTBS,Tone,Noise,33,3,1,0.905816100013908,1
969,55,Larynx,Left cTBS,Tone,Noise,34,3,1,0.7320007000234909,1
970,55,Larynx,Left cTBS,Tone,Noise,35,5,1,0.583298499986995,1
971,55,Larynx,Left cTBS,Tone,Noise,36,5,1,0.6677718999853821,1
972,55,Larynx,Left cTBS,Tone,Noise,37,1,0,0.5277706999913789,1
973,55,Larynx,Left cTBS,Tone,Noise,38,4,1,0.6950556999945551,1
974,55,Larynx,Left cTBS,Tone,Noise,39,3,1,0.6294032000005251,1
975,55,Larynx,Left cTBS,Tone,Noise,40,4,1,0.640856499987422,1
976,55,Larynx,Left cTBS,Tone,Noise,41,3,1,0.7453833999752529,1
977,55,Larynx,Left cTBS,Tone,Noise,42,3,1,0.6217581000237261,1
978,55,Larynx,Left cTBS,Tone,Noise,43,2,1,0.7624929000157858,1
979,55,Larynx,Left cTBS,Tone,Noise,44,2,1,0.757931300002383,1
980,55,Larynx,Left cTBS,Tone,Noise,45,3,1,0.561255200009327,1
981,55,Larynx,Left cTBS,Tone,Noise,46,3,1,0.612088499998208,1
982,55,Larynx,Left cTBS,Tone,Noise,47,2,1,0.6191782999958381,1
983,55,Larynx,Left cTBS,Tone,Noise,48,2,1,0.6784126999846191,1
984,55,Larynx,Left cTBS,Tone,Noise,49,5,1,0.58992890000809,1
985,55,Larynx,Left cTBS,Tone,Noise,50,5,1,0.4997547999955711,1
986,55,Larynx,Left cTBS,Tone,Noise,51,3,1,0.49219330001506,1
987,55,Larynx,Left cTBS,Tone,Noise,52,3,1,0.5568846000242049,1
988,55,Larynx,Left cTBS,Tone,Noise,53,2,1,0.5283404999936471,1
989,55,Larynx,Left cTBS,Tone,Noise,54,1,1,0.568135700013954,1
990,55,Larynx,Left cTBS,Tone,Noise,55,4,1,0.6248828999814581,1
991,55,Larynx,Left cTBS,Tone,Noise,56,5,1,0.6797362999932371,1
992,55,Larynx,Left cTBS,Tone,Noise,57,2,1,0.613015599985374,1
993,55,Larynx,Left cTBS,Tone,Noise,58,3,1,0.676819200016325,1
994,55,Larynx,Left cTBS,Tone,Noise,59,1,0,0.7072737000125929,1
995,55,Larynx,Left cTBS,Tone,Noise,60,5,1,0.5645490999741011,1
996,55,Larynx,Left cTBS,Tone,Noise,61,4,0,0.901990800019121,1
997,55,Larynx,Left cTBS,Tone,Noise,62,3,1,0.7621130000043191,1
998,55,Larynx,Left cTBS,Tone,Noise,63,4,1,0.5899943000113129,1
999,55,Larynx,Left cTBS,Tone,Noise,64,3,0,0.63680320000276,1
1000,55,Larynx,Left cTBS,Tone,Noise,65,1,0,1.28189310000744,1
1001,55,Larynx,Left cTBS,Tone,Noise,66,3,0,0.651731799996924,1
1002,55,Larynx,Left cTBS,Tone,Noise,67,5,0,0.72678579998319,1
1003,55,Larynx,Left cTBS,Tone,Noise,68,2,1,1.35371550000855,1
1004,55,Larynx,Left cTBS,Tone,Noise,69,4,1,0.7335836999991441,1
1005,55,Larynx,Left cTBS,Tone,Noise,70,3,0,1.3072649000096102,1
1006,55,Larynx,Left cTBS,Tone,Noise,71,1,0,0.8787011999811509,1
1007,55,Larynx,Left cTBS,Tone,Noise,72,5,1,0.972542500006966,1
1008,55,Larynx,Left cTBS,Tone,Noise,73,1,0,0.772476799989818,1
1009,55,Larynx,Left cTBS,Tone,Noise,74,4,1,0.7413880999956751,1
1010,55,Larynx,Left cTBS,Tone,Noise,75,4,1,0.983146699989447,1
1011,55,Larynx,Left cTBS,Tone,Noise,76,2,1,0.908452200004831,1
1012,55,Larynx,Left cTBS,Tone,Noise,77,1,1,1.28104180001537,1
1013,55,Larynx,Left cTBS,Tone,Noise,78,4,1,0.8520598000031899,1
1014,55,Larynx,Left cTBS,Tone,Noise,79,1,0,0.7775128999783191,1
1015,55,Larynx,Left cTBS,Tone,Noise,80,1,0,0.7642786999931559,1
1016,55,Larynx,Left cTBS,Tone,Noise,81,5,1,0.7851570000057109,1
1017,55,Larynx,Left cTBS,Tone,Noise,82,1,1,0.943985899997642,1
1018,55,Larynx,Left cTBS,Tone,Noise,83,2,1,0.6928728999919259,1
1019,55,Larynx,Left cTBS,Tone,Noise,84,3,1,1.62181160002365,1
1020,55,Larynx,Left cTBS,Tone,Noise,85,4,1,0.745319400011795,1
1021,55,Larynx,Left cTBS,Tone,Noise,86,2,0,0.718146400002297,1
1022,55,Larynx,Left cTBS,Tone,Noise,87,3,0,1.65375979998498,1
1023,55,Larynx,Left cTBS,Tone,Noise,88,3,1,0.977108199993381,1
1024,55,Larynx,Left cTBS,Tone,Noise,89,2,1,0.882080099981977,1
1025,55,Larynx,Left cTBS,Tone,Noise,90,2,0,0.731842799985316,1
1026,55,Larynx,Left cTBS,Tone,Noise,91,4,0,0.968385499989381,1
1027,55,Larynx,Left cTBS,Tone,Noise,92,3,1,0.671914799982915,1
1028,55,Larynx,Left cTBS,Tone,Noise,93,3,1,0.6276774000143629,1
1029,55,Larynx,Left cTBS,Tone,Noise,94,2,1,1.11357869999483,1
1030,55,Larynx,Left cTBS,Tone,Noise,95,1,0,0.718914900004165,1
1031,55,Larynx,Left cTBS,Tone,Noise,96,2,0,0.660308499995153,1
1032,55,Larynx,Left cTBS,Tone,Noise,97,4,1,0.8188499000098092,1
1033,55,Larynx,Left cTBS,Tone,Noise,98,5,1,0.634172099991702,1
1034,55,Larynx,Left cTBS,Tone,Noise,99,5,1,0.849226599995745,1
1035,55,Larynx,Left cTBS,Tone,Noise,100,4,1,0.642950500012375,1
1036,55,Larynx,Left cTBS,Tone,Noise,101,1,0,0.605947200005176,1
1037,55,Larynx,Left cTBS,Tone,Noise,102,3,1,0.643550999986473,1
1038,55,Larynx,Left cTBS,Tone,Noise,103,3,1,0.5954674000095109,1
1039,55,Larynx,Left cTBS,Tone,Noise,104,3,1,0.547837599995546,1
1040,55,Larynx,Left cTBS,Tone,Noise,105,4,1,0.575479099992663,1
1041,55,Larynx,Left cTBS,Tone,Noise,106,5,1,0.596767100010766,1
1042,55,Larynx,Left cTBS,Tone,Noise,107,2,1,0.645080700021936,1
1043,55,Larynx,Left cTBS,Tone,Noise,108,4,1,0.6043323000194499,1
1044,55,Larynx,Left cTBS,Tone,Noise,109,3,0,0.7894971000205259,1
1045,55,Larynx,Left cTBS,Tone,Noise,110,4,1,1.126322600001,1
1046,55,Larynx,Left cTBS,Tone,Noise,111,3,1,0.768794900010107,1
1047,55,Larynx,Left cTBS,Tone,Noise,112,4,1,0.578000200010138,1
1048,55,Larynx,Left cTBS,Tone,Noise,113,5,0,0.628388399985852,1
1049,55,Larynx,Left cTBS,Tone,Noise,114,1,0,0.696534899994731,1
1050,55,Larynx,Left cTBS,Tone,Noise,115,5,1,0.758352599979844,1
1051,55,Larynx,Left cTBS,Tone,Noise,116,3,1,0.821701800014125,1
1052,55,Larynx,Left cTBS,Tone,Noise,117,2,0,0.652974399999948,1
1053,55,Larynx,Left cTBS,Tone,Noise,118,1,0,0.575278200005414,1
1054,55,Larynx,Left cTBS,Tone,Noise,119,3,0,0.584288200014271,1
1055,55,Larynx,Left cTBS,Tone,Noise,120,3,0,2.1453260999987798,1
1056,55,Larynx,Left cTBS,Tone,Noise,121,5,0,0.7864342000102621,1
1057,55,Larynx,Left cTBS,Tone,Noise,122,3,1,0.792439399985597,1
1058,55,Larynx,Left cTBS,Tone,Noise,123,1,1,0.6275552000151949,1
1059,55,Larynx,Left cTBS,Tone,Noise,124,3,1,0.939806299982592,1
1060,55,Larynx,Left cTBS,Tone,Noise,125,5,1,0.7415326000191271,1
1061,55,Larynx,Left cTBS,Tone,Noise,126,2,0,0.528605700004846,1
1062,55,Larynx,Left cTBS,Tone,Noise,127,5,0,0.729216200008523,1
1063,55,Larynx,Left cTBS,Tone,Noise,128,4,1,0.766042200004449,1
1064,55,Larynx,Left cTBS,Tone,Noise,129,4,1,1.46966629999224,1
1065,55,Larynx,Left cTBS,Tone,Noise,130,2,1,0.7110303000081329,1
1066,55,Larynx,Left cTBS,Tone,Noise,131,4,0,0.8762399999832271,1
1067,55,Larynx,Left cTBS,Tone,Noise,132,4,0,1.28820969999651,1
1068,55,Larynx,Left cTBS,Tone,Noise,133,1,0,1.08253350001178,1
1069,55,Larynx,Left cTBS,Tone,Noise,134,3,1,0.986967399978312,1
1070,55,Larynx,Left cTBS,Tone,Noise,135,2,1,0.683697800006485,1
1071,55,Larynx,Left cTBS,Tone,Noise,136,3,1,1.36559359999956,1
1072,55,Larynx,Left cTBS,Tone,Noise,137,2,0,0.9988094000145792,1
1073,55,Larynx,Left cTBS,Tone,Noise,138,2,0,0.7194640999950931,1
1074,55,Larynx,Left cTBS,Tone,Noise,139,1,0,0.6241286000004039,1
1075,55,Larynx,Left cTBS,Tone,Noise,140,2,1,0.73694499998237,1
1076,55,Larynx,Left cTBS,Tone,Noise,141,1,1,0.608410300017567,1
1077,55,Larynx,Left cTBS,Tone,Noise,142,3,1,0.53927159999148,1
1078,55,Larynx,Left cTBS,Tone,Noise,143,4,1,0.6380020000215151,1
1079,55,Larynx,Left cTBS,Tone,Noise,144,4,1,0.637802799989004,1
1080,55,Larynx,Left cTBS,Tone,Noise,145,3,1,0.6642285000125411,1
1081,55,Larynx,Left cTBS,Tone,Noise,146,4,1,0.806612899992615,1
1082,55,Larynx,Left cTBS,Tone,Noise,147,2,0,0.5043465999769979,1
1083,55,Larynx,Left cTBS,Tone,Noise,148,3,0,0.5707682000065689,1
1084,55,Larynx,Left cTBS,Tone,Noise,149,3,0,0.6881865000177639,1
1085,55,Larynx,Left cTBS,Tone,Noise,150,5,1,0.666221299994504,1
1086,55,Larynx,Left cTBS,Tone,Noise,151,1,1,0.616395700024441,1
1087,55,Larynx,Left cTBS,Tone,Noise,152,5,1,0.557627899979707,1
1088,55,Larynx,Left cTBS,Tone,Noise,153,5,1,0.7768205000029409,1
1089,55,Larynx,Left cTBS,Tone,Noise,154,4,1,0.7472028000047429,1
1090,55,Larynx,Left cTBS,Tone,Noise,155,2,0,0.725878600002034,1
1091,55,Larynx,Left cTBS,Tone,Noise,156,3,1,0.6472117000084839,1
2808,55,Larynx,Sham,Tone,Noise,1,3,1,2.01130639994517,1
2809,55,Larynx,Sham,Tone,Noise,2,1,1,1.08731140010059,1
2810,55,Larynx,Sham,Tone,Noise,3,3,1,1.09449879999738,1
2811,55,Larynx,Sham,Tone,Noise,4,5,0,1.21376499999315,1
2812,55,Larynx,Sham,Tone,Noise,5,2,1,0.690343399997801,1
2813,55,Larynx,Sham,Tone,Noise,6,1,1,0.5122652000281961,1
2814,55,Larynx,Sham,Tone,Noise,7,5,1,0.4605447999201721,1
2815,55,Larynx,Sham,Tone,Noise,8,1,0,0.539366599987261,1
2816,55,Larynx,Sham,Tone,Noise,9,1,1,0.503369799931534,1
2817,55,Larynx,Sham,Tone,Noise,10,3,1,0.538616199977696,1
2818,55,Larynx,Sham,Tone,Noise,11,1,1,0.49804069998208395,1
2819,55,Larynx,Sham,Tone,Noise,12,2,0,0.5991795000154531,1
2820,55,Larynx,Sham,Tone,Noise,13,2,0,0.7082104000728578,1
2821,55,Larynx,Sham,Tone,Noise,14,3,0,0.542668999987654,1
2822,55,Larynx,Sham,Tone,Noise,15,5,1,1.39201419998426,1
2823,55,Larynx,Sham,Tone,Noise,16,3,0,0.9726902000838891,1
2824,55,Larynx,Sham,Tone,Noise,17,3,0,1.05398490000516,1
2825,55,Larynx,Sham,Tone,Noise,18,4,0,0.7130913001019509,1
2826,55,Larynx,Sham,Tone,Noise,19,3,0,1.29794129997026,1
2827,55,Larynx,Sham,Tone,Noise,20,4,0,2.10636520001572,1
2828,55,Larynx,Sham,Tone,Noise,21,2,0,1.86154409998562,1
2829,55,Larynx,Sham,Tone,Noise,22,5,0,1.3756670999573501,1
2830,55,Larynx,Sham,Tone,Noise,23,2,1,1.29942289995961,1
2831,55,Larynx,Sham,Tone,Noise,24,5,1,1.39714490005281,1
2832,55,Larynx,Sham,Tone,Noise,25,5,0,1.33102599997073,1
2833,55,Larynx,Sham,Tone,Noise,26,4,0,1.35505680006463,1
2834,55,Larynx,Sham,Tone,Noise,27,4,1,1.22955020004883,1
2835,55,Larynx,Sham,Tone,Noise,28,3,0,0.6117222999455411,1
2836,55,Larynx,Sham,Tone,Noise,29,4,0,0.819820699980482,1
2837,55,Larynx,Sham,Tone,Noise,30,2,0,0.714727999991737,1
2838,55,Larynx,Sham,Tone,Noise,31,3,1,1.0259114000946299,1
2839,55,Larynx,Sham,Tone,Noise,32,4,0,0.7935035999398679,1
2840,55,Larynx,Sham,Tone,Noise,33,4,0,0.605571900028735,1
2841,55,Larynx,Sham,Tone,Noise,34,4,0,0.641479499987327,1
2842,55,Larynx,Sham,Tone,Noise,35,3,1,0.819499099976383,1
2843,55,Larynx,Sham,Tone,Noise,36,2,0,0.643667399999686,1
2844,55,Larynx,Sham,Tone,Noise,37,2,0,1.0897437999956299,1
2845,55,Larynx,Sham,Tone,Noise,38,3,0,0.6135700000450021,1
2846,55,Larynx,Sham,Tone,Noise,39,1,1,1.92114989995025,1
2847,55,Larynx,Sham,Tone,Noise,40,2,0,1.16850400005933,1
2848,55,Larynx,Sham,Tone,Noise,41,3,0,0.889654199942015,1
2849,55,Larynx,Sham,Tone,Noise,42,1,0,0.666969900019467,1
2850,55,Larynx,Sham,Tone,Noise,43,4,0,0.76637819991447,1
2851,55,Larynx,Sham,Tone,Noise,44,3,0,0.6602273000171409,1
2852,55,Larynx,Sham,Tone,Noise,45,3,0,1.26705349993426,1
2853,55,Larynx,Sham,Tone,Noise,46,1,0,0.659541300032288,1
2854,55,Larynx,Sham,Tone,Noise,47,4,0,0.6890340000391011,1
2855,55,Larynx,Sham,Tone,Noise,48,5,0,0.666303799953312,1
2856,55,Larynx,Sham,Tone,Noise,49,2,0,1.32056439993903,1
2857,55,Larynx,Sham,Tone,Noise,50,3,0,1.57801479997579,1
2858,55,Larynx,Sham,Tone,Noise,51,2,0,2.6240682998905,1
2859,55,Larynx,Sham,Tone,Noise,52,4,0,1.39617720001843,1
2860,55,Larynx,Sham,Tone,Noise,53,3,1,1.3979766999837,1
2861,55,Larynx,Sham,Tone,Noise,54,3,0,0.6823830999201159,1
2862,55,Larynx,Sham,Tone,Noise,55,5,1,1.2742736999644,1
2863,55,Larynx,Sham,Tone,Noise,56,3,0,0.666897999937646,1
2864,55,Larynx,Sham,Tone,Noise,57,2,0,0.824394700000994,1
2865,55,Larynx,Sham,Tone,Noise,58,1,0,0.859792500035837,1
2866,55,Larynx,Sham,Tone,Noise,59,2,0,0.7347166000399742,1
2867,55,Larynx,Sham,Tone,Noise,60,4,1,0.9477657999377701,1
2868,55,Larynx,Sham,Tone,Noise,61,3,0,2.47081129997969,1
2869,55,Larynx,Sham,Tone,Noise,62,5,0,0.7835535000776871,1
2870,55,Larynx,Sham,Tone,Noise,63,4,1,0.911370099987835,1
2871,55,Larynx,Sham,Tone,Noise,64,3,0,2.37796020007227,1
2872,55,Larynx,Sham,Tone,Noise,65,1,0,1.33781689999159,1
2873,55,Larynx,Sham,Tone,Noise,66,2,0,0.904237400041893,1
2874,55,Larynx,Sham,Tone,Noise,67,5,1,1.2183247000211899,1
2875,55,Larynx,Sham,Tone,Noise,68,3,0,0.66141050006263,1
2876,55,Larynx,Sham,Tone,Noise,69,5,0,0.696390900062397,1
2877,55,Larynx,Sham,Tone,Noise,70,4,0,0.894281500019133,1
2878,55,Larynx,Sham,Tone,Noise,71,5,0,2.15019169996958,1
2879,55,Larynx,Sham,Tone,Noise,72,4,0,1.02427069994155,1
2880,55,Larynx,Sham,Tone,Noise,73,1,0,0.767642999999225,1
2881,55,Larynx,Sham,Tone,Noise,74,3,0,0.803426699945703,1
2882,55,Larynx,Sham,Tone,Noise,75,1,1,0.799302899977192,1
2883,55,Larynx,Sham,Tone,Noise,76,2,0,0.6084718999918549,1
2884,55,Larynx,Sham,Tone,Noise,77,2,0,0.5994260000297801,1
2885,55,Larynx,Sham,Tone,Noise,78,4,0,1.30318470008206,1
2886,55,Larynx,Sham,Tone,Noise,79,1,1,0.874947699951008,1
2887,55,Larynx,Sham,Tone,Noise,80,3,0,1.03125549992546,1
2888,55,Larynx,Sham,Tone,Noise,81,3,0,0.647829400026239,1
2889,55,Larynx,Sham,Tone,Noise,82,1,0,0.582961500040255,1
2890,55,Larynx,Sham,Tone,Noise,83,3,1,0.746274200035259,1
2891,55,Larynx,Sham,Tone,Noise,84,2,1,1.37500560004264,1
2892,55,Larynx,Sham,Tone,Noise,85,5,0,0.940070900018327,1
2893,55,Larynx,Sham,Tone,Noise,86,3,0,1.5682862000539899,1
2894,55,Larynx,Sham,Tone,Noise,87,2,0,1.03650249994826,1
2895,55,Larynx,Sham,Tone,Noise,88,1,0,0.8331051000859592,1
2896,55,Larynx,Sham,Tone,Noise,89,4,0,0.7592271999455992,1
2897,55,Larynx,Sham,Tone,Noise,90,5,1,1.9063662000698998,1
2898,55,Larynx,Sham,Tone,Noise,91,4,0,0.93473819992505,1
2899,55,Larynx,Sham,Tone,Noise,92,3,0,0.7947772999759759,1
2900,55,Larynx,Sham,Tone,Noise,93,2,0,0.7748002000153059,1
2901,55,Larynx,Sham,Tone,Noise,94,5,1,0.7967997998930509,1
2902,55,Larynx,Sham,Tone,Noise,95,4,0,1.13933170004748,1
2903,55,Larynx,Sham,Tone,Noise,96,2,0,1.01399740006309,1
2904,55,Larynx,Sham,Tone,Noise,97,3,0,0.8269631000002851,1
2905,55,Larynx,Sham,Tone,Noise,98,2,1,1.11674520000815,1
2906,55,Larynx,Sham,Tone,Noise,99,1,0,0.646881200023927,1
2907,55,Larynx,Sham,Tone,Noise,100,2,0,0.671365599962883,1
2908,55,Larynx,Sham,Tone,Noise,101,4,0,0.8319058999186378,1
2909,55,Larynx,Sham,Tone,Noise,102,1,1,1.1726701000006898,1
2910,55,Larynx,Sham,Tone,Noise,103,4,0,0.836186600034125,1
2911,55,Larynx,Sham,Tone,Noise,104,4,0,0.937334499903955,1
2912,55,Larynx,Sham,Tone,Noise,105,2,0,0.75486829993315,1
2913,55,Larynx,Sham,Tone,Noise,106,3,1,2.17475509992801,1
2914,55,Larynx,Sham,Tone,Noise,107,5,0,0.784327999921516,1
2915,55,Larynx,Sham,Tone,Noise,108,2,1,1.03185230004601,1
2916,55,Larynx,Sham,Tone,Noise,109,5,1,0.7738280999474231,1
2917,55,Larynx,Sham,Tone,Noise,110,3,1,1.2578189000487299,1
2918,55,Larynx,Sham,Tone,Noise,111,5,0,1.3489857999375099,1
2919,55,Larynx,Sham,Tone,Noise,112,3,1,1.17792339995503,1
2920,55,Larynx,Sham,Tone,Noise,113,4,0,0.6929340000497181,1
2921,55,Larynx,Sham,Tone,Noise,114,4,0,0.7341013000113891,1
2922,55,Larynx,Sham,Tone,Noise,115,3,0,0.708226300077513,1
2923,55,Larynx,Sham,Tone,Noise,116,1,0,1.1567135999212,1
2924,55,Larynx,Sham,Tone,Noise,117,3,0,1.27742150006816,1
2925,55,Larynx,Sham,Tone,Noise,118,2,0,0.7740784999914471,1
2926,55,Larynx,Sham,Tone,Noise,119,3,0,0.761539199971594,1
2927,55,Larynx,Sham,Tone,Noise,120,1,1,0.8878500999417159,1
2928,55,Larynx,Sham,Tone,Noise,121,5,1,1.07813229993917,1
2929,55,Larynx,Sham,Tone,Noise,122,5,0,0.750248200027272,1
2930,55,Larynx,Sham,Tone,Noise,123,2,0,1.14305369998328,1
2931,55,Larynx,Sham,Tone,Noise,124,2,1,1.11040440003853,1
2932,55,Larynx,Sham,Tone,Noise,125,4,1,1.1555806000251299,1
2933,55,Larynx,Sham,Tone,Noise,126,4,1,0.7608957999618721,1
2934,55,Larynx,Sham,Tone,Noise,127,2,1,0.53100540000014,1
2935,55,Larynx,Sham,Tone,Noise,128,2,1,1.3790906999493,1
2936,55,Larynx,Sham,Tone,Noise,129,4,1,0.844286500010639,1
2937,55,Larynx,Sham,Tone,Noise,130,3,1,0.788289800053462,1
2938,55,Larynx,Sham,Tone,Noise,131,1,1,1.7608363999752301,1
2939,55,Larynx,Sham,Tone,Noise,132,2,1,2.04751319997013,1
2940,55,Larynx,Sham,Tone,Noise,133,3,0,0.9074457000242551,1
2941,55,Larynx,Sham,Tone,Noise,134,3,1,1.01146459998563,1
2942,55,Larynx,Sham,Tone,Noise,135,4,1,0.680207299999893,1
2943,55,Larynx,Sham,Tone,Noise,136,3,1,0.8309218999929731,1
2944,55,Larynx,Sham,Tone,Noise,137,4,1,1.9359390999889,1
2945,55,Larynx,Sham,Tone,Noise,138,2,0,0.497514600050636,1
2946,55,Larynx,Sham,Tone,Noise,139,1,0,0.418883099919185,1
2947,55,Larynx,Sham,Tone,Noise,140,3,0,0.45970699994359204,1
2948,55,Larynx,Sham,Tone,Noise,141,3,0,0.5351250999374321,1
2949,55,Larynx,Sham,Tone,Noise,142,5,0,0.49933520006015897,1
2950,55,Larynx,Sham,Tone,Noise,143,5,0,0.564101599971764,1
2951,55,Larynx,Sham,Tone,Noise,144,5,1,1.27066709997598,1
2952,55,Larynx,Sham,Tone,Noise,145,1,0,0.712188099976629,1
2953,55,Larynx,Sham,Tone,Noise,146,4,0,0.8448990000179041,1
2954,55,Larynx,Sham,Tone,Noise,147,3,0,0.711359199951403,1
2955,55,Larynx,Sham,Tone,Noise,148,1,0,0.9823337000561879,1
2956,55,Larynx,Sham,Tone,Noise,149,3,0,0.6983189000748101,1
2957,55,Larynx,Sham,Tone,Noise,150,1,0,0.683379599940963,1
2958,55,Larynx,Sham,Tone,Noise,151,2,0,1.92084749997593,1
2959,55,Larynx,Sham,Tone,Noise,152,4,0,0.7659305999986831,1
2960,55,Larynx,Sham,Tone,Noise,153,5,0,1.77889109996613,1
2961,55,Larynx,Sham,Tone,Noise,154,3,0,1.5171323999529698,1
2962,55,Larynx,Sham,Tone,Noise,155,3,1,1.27732610004023,1
2963,55,Larynx,Sham,Tone,Noise,156,4,0,1.0315892000217,1
4056,104,Larynx,Left cTBS,Tone,Noise,1,2,0,0.8406510000349949,1
4057,104,Larynx,Left cTBS,Tone,Noise,2,3,0,0.444512899965048,1
4058,104,Larynx,Left cTBS,Tone,Noise,3,5,0,0.39356539992149897,1
4059,104,Larynx,Left cTBS,Tone,Noise,4,5,0,0.406178200035356,1
4060,104,Larynx,Left cTBS,Tone,Noise,5,2,0,0.4844181999797,1
4061,104,Larynx,Left cTBS,Tone,Noise,6,4,1,0.548167599947192,1
4062,104,Larynx,Left cTBS,Tone,Noise,7,1,1,0.556297599920072,1
4063,104,Larynx,Left cTBS,Tone,Noise,8,2,0,0.6866060000611469,1
4064,104,Larynx,Left cTBS,Tone,Noise,9,3,0,0.488187100039795,1
4065,104,Larynx,Left cTBS,Tone,Noise,10,3,1,0.5865321999881421,1
4066,104,Larynx,Left cTBS,Tone,Noise,11,1,1,0.47539080004207795,1
4067,104,Larynx,Left cTBS,Tone,Noise,12,4,1,0.4317972999997439,1
4068,104,Larynx,Left cTBS,Tone,Noise,13,3,0,0.662170200026594,1
4069,104,Larynx,Left cTBS,Tone,Noise,14,3,0,0.5371154999593271,1
4070,104,Larynx,Left cTBS,Tone,Noise,15,1,0,0.43875909992493706,1
4071,104,Larynx,Left cTBS,Tone,Noise,16,2,0,0.410775600001216,1
4072,104,Larynx,Left cTBS,Tone,Noise,17,3,0,0.528626099927351,1
4073,104,Larynx,Left cTBS,Tone,Noise,18,5,1,0.4772795999888329,1
4074,104,Larynx,Left cTBS,Tone,Noise,19,5,1,0.432103600003757,1
4075,104,Larynx,Left cTBS,Tone,Noise,20,3,1,0.42759480001404904,1
4076,104,Larynx,Left cTBS,Tone,Noise,21,4,0,0.517667399952188,1
4077,104,Larynx,Left cTBS,Tone,Noise,22,1,0,0.426123399985954,1
4078,104,Larynx,Left cTBS,Tone,Noise,23,3,0,0.506737499963492,1
4079,104,Larynx,Left cTBS,Tone,Noise,24,5,0,0.5631763000274079,1
4080,104,Larynx,Left cTBS,Tone,Noise,25,2,1,0.452227699919604,1
4081,104,Larynx,Left cTBS,Tone,Noise,26,3,1,0.397059099981561,1
4082,104,Larynx,Left cTBS,Tone,Noise,27,4,1,0.597476200084202,1
4083,104,Larynx,Left cTBS,Tone,Noise,28,2,0,0.628544600098394,1
4084,104,Larynx,Left cTBS,Tone,Noise,29,4,1,0.48853510001208605,1
4085,104,Larynx,Left cTBS,Tone,Noise,30,4,1,0.42593370005488396,1
4086,104,Larynx,Left cTBS,Tone,Noise,31,3,1,0.496948699932545,1
4087,104,Larynx,Left cTBS,Tone,Noise,32,4,0,0.538590499898419,1
4088,104,Larynx,Left cTBS,Tone,Noise,33,5,0,0.5980541999451819,1
4089,104,Larynx,Left cTBS,Tone,Noise,34,1,1,0.44549999991431805,1
4090,104,Larynx,Left cTBS,Tone,Noise,35,4,1,0.451851799967699,1
4091,104,Larynx,Left cTBS,Tone,Noise,36,2,1,0.383851199992932,1
4092,104,Larynx,Left cTBS,Tone,Noise,37,2,1,0.377979200100526,1
4093,104,Larynx,Left cTBS,Tone,Noise,38,3,1,0.422674300032668,1
4094,104,Larynx,Left cTBS,Tone,Noise,39,1,0,0.514594800071791,1
4095,104,Larynx,Left cTBS,Tone,Noise,40,3,0,0.40638510009739504,1
4096,104,Larynx,Left cTBS,Tone,Noise,41,3,0,0.487747899955139,1
4097,104,Larynx,Left cTBS,Tone,Noise,42,5,0,0.4509167999494821,1
4098,104,Larynx,Left cTBS,Tone,Noise,43,1,1,0.5070677999174221,1
4099,104,Larynx,Left cTBS,Tone,Noise,44,2,1,0.479761800030246,1
4100,104,Larynx,Left cTBS,Tone,Noise,45,3,1,0.46840570005588206,1
4101,104,Larynx,Left cTBS,Tone,Noise,46,2,1,0.5527688999427479,1
4102,104,Larynx,Left cTBS,Tone,Noise,47,2,0,0.533085800008848,1
4103,104,Larynx,Left cTBS,Tone,Noise,48,5,1,0.6725963999051601,1
4104,104,Larynx,Left cTBS,Tone,Noise,49,4,0,0.450779900071211,1
4105,104,Larynx,Left cTBS,Tone,Noise,50,5,1,0.472115100012161,1
4106,104,Larynx,Left cTBS,Tone,Noise,51,1,1,0.44920449994970096,1
4107,104,Larynx,Left cTBS,Tone,Noise,52,1,0,0.548200500081293,1
4108,104,Larynx,Left cTBS,Tone,Noise,53,4,0,0.599133999901824,1
4109,104,Larynx,Left cTBS,Tone,Noise,54,5,1,0.441003300016746,1
4110,104,Larynx,Left cTBS,Tone,Noise,55,2,1,0.506905999965966,1
4111,104,Larynx,Left cTBS,Tone,Noise,56,4,1,0.747099500033073,1
4112,104,Larynx,Left cTBS,Tone,Noise,57,4,0,0.618020700057969,1
4113,104,Larynx,Left cTBS,Tone,Noise,58,3,0,0.570144600002095,1
4114,104,Larynx,Left cTBS,Tone,Noise,59,3,1,0.46995289996266404,1
4115,104,Larynx,Left cTBS,Tone,Noise,60,2,1,0.679792600101791,1
4116,104,Larynx,Left cTBS,Tone,Noise,61,1,1,0.554039799957536,1
4117,104,Larynx,Left cTBS,Tone,Noise,62,4,0,0.519035600009374,1
4118,104,Larynx,Left cTBS,Tone,Noise,63,3,0,0.595239000045694,1
4119,104,Larynx,Left cTBS,Tone,Noise,64,3,0,0.47529879992362106,1
4120,104,Larynx,Left cTBS,Tone,Noise,65,3,0,0.451782199903391,1
4121,104,Larynx,Left cTBS,Tone,Noise,66,1,1,0.46864049998112,1
4122,104,Larynx,Left cTBS,Tone,Noise,67,5,1,0.463881000061519,1
4123,104,Larynx,Left cTBS,Tone,Noise,68,2,0,0.6762071000412111,1
4124,104,Larynx,Left cTBS,Tone,Noise,69,4,1,0.49649920000229003,1
4125,104,Larynx,Left cTBS,Tone,Noise,70,2,0,0.639070600038394,1
4126,104,Larynx,Left cTBS,Tone,Noise,71,3,1,0.42569970001932206,1
4127,104,Larynx,Left cTBS,Tone,Noise,72,3,1,0.4109067999525,1
4128,104,Larynx,Left cTBS,Tone,Noise,73,2,1,0.404485999955796,1
4129,104,Larynx,Left cTBS,Tone,Noise,74,4,1,0.487004099995829,1
4130,104,Larynx,Left cTBS,Tone,Noise,75,3,1,0.560962499934249,1
4131,104,Larynx,Left cTBS,Tone,Noise,76,5,0,0.840245599974878,1
4132,104,Larynx,Left cTBS,Tone,Noise,77,1,0,0.674688099999912,1
4133,104,Larynx,Left cTBS,Tone,Noise,78,4,1,0.593276800005697,1
4134,104,Larynx,Left cTBS,Tone,Noise,79,5,1,0.670139099936932,1
4135,104,Larynx,Left cTBS,Tone,Noise,80,3,0,0.533865699893795,1
4136,104,Larynx,Left cTBS,Tone,Noise,81,3,0,0.4404100999236111,1
4137,104,Larynx,Left cTBS,Tone,Noise,82,4,0,0.5075756999431179,1
4138,104,Larynx,Left cTBS,Tone,Noise,83,3,1,0.458521399996243,1
4139,104,Larynx,Left cTBS,Tone,Noise,84,4,1,0.37487989990040704,1
4140,104,Larynx,Left cTBS,Tone,Noise,85,1,1,0.34427289990708193,1
4141,104,Larynx,Left cTBS,Tone,Noise,86,3,0,0.5009714999469,1
4142,104,Larynx,Left cTBS,Tone,Noise,87,2,0,0.46926609997171903,1
4143,104,Larynx,Left cTBS,Tone,Noise,88,1,1,0.47802520007826393,1
4144,104,Larynx,Left cTBS,Tone,Noise,89,4,1,0.47151389997452503,1
4145,104,Larynx,Left cTBS,Tone,Noise,90,3,0,0.468817500048317,1
4146,104,Larynx,Left cTBS,Tone,Noise,91,3,0,0.41076329990755794,1
4147,104,Larynx,Left cTBS,Tone,Noise,92,1,1,0.41312229994218796,1
4148,104,Larynx,Left cTBS,Tone,Noise,93,5,1,0.533954899990931,1
4149,104,Larynx,Left cTBS,Tone,Noise,94,2,1,0.428060900070705,1
4150,104,Larynx,Left cTBS,Tone,Noise,95,1,0,0.422990799997933,1
4151,104,Larynx,Left cTBS,Tone,Noise,96,4,0,0.438224100042135,1
4152,104,Larynx,Left cTBS,Tone,Noise,97,4,0,0.45006549998652207,1
4153,104,Larynx,Left cTBS,Tone,Noise,98,2,0,0.580134400050156,1
4154,104,Larynx,Left cTBS,Tone,Noise,99,2,1,0.35958060005214104,1
4155,104,Larynx,Left cTBS,Tone,Noise,100,4,1,0.441109599894844,1
4156,104,Larynx,Left cTBS,Tone,Noise,101,3,0,0.561048200004734,1
4157,104,Larynx,Left cTBS,Tone,Noise,102,2,0,0.499811900081113,1
4158,104,Larynx,Left cTBS,Tone,Noise,103,3,0,0.41673339996486897,1
4159,104,Larynx,Left cTBS,Tone,Noise,104,3,0,0.49375530006364005,1
4160,104,Larynx,Left cTBS,Tone,Noise,105,5,1,0.620670099975541,1
4161,104,Larynx,Left cTBS,Tone,Noise,106,2,0,0.569869400002062,1
4162,104,Larynx,Left cTBS,Tone,Noise,107,2,1,0.629253699909896,1
4163,104,Larynx,Left cTBS,Tone,Noise,108,4,0,0.448335099965334,1
4164,104,Larynx,Left cTBS,Tone,Noise,109,5,0,0.555740299983881,1
4165,104,Larynx,Left cTBS,Tone,Noise,110,1,0,0.459459800040349,1
4166,104,Larynx,Left cTBS,Tone,Noise,111,5,0,0.513025099993683,1
4167,104,Larynx,Left cTBS,Tone,Noise,112,1,1,0.446455199969932,1
4168,104,Larynx,Left cTBS,Tone,Noise,113,4,1,0.402971900068223,1
4169,104,Larynx,Left cTBS,Tone,Noise,114,3,0,0.3819516999647021,1
4170,104,Larynx,Left cTBS,Tone,Noise,115,2,0,0.360806600074284,1
4171,104,Larynx,Left cTBS,Tone,Noise,116,3,0,0.3909924000035971,1
4172,104,Larynx,Left cTBS,Tone,Noise,117,5,1,0.429738099919632,1
4173,104,Larynx,Left cTBS,Tone,Noise,118,4,1,0.406630699988455,1
4174,104,Larynx,Left cTBS,Tone,Noise,119,5,0,0.418940900010057,1
4175,104,Larynx,Left cTBS,Tone,Noise,120,2,0,0.383348100003786,1
4176,104,Larynx,Left cTBS,Tone,Noise,121,3,0,0.44021749997045795,1
4177,104,Larynx,Left cTBS,Tone,Noise,122,4,0,0.4810563999926671,1
4178,104,Larynx,Left cTBS,Tone,Noise,123,4,1,0.44354500004556,1
4179,104,Larynx,Left cTBS,Tone,Noise,124,2,1,0.44592800003010796,1
4180,104,Larynx,Left cTBS,Tone,Noise,125,2,0,0.388050400069915,1
4181,104,Larynx,Left cTBS,Tone,Noise,126,3,0,0.609786399989389,1
4182,104,Larynx,Left cTBS,Tone,Noise,127,5,1,0.48987919988576295,1
4183,104,Larynx,Left cTBS,Tone,Noise,128,1,1,0.427058400004171,1
4184,104,Larynx,Left cTBS,Tone,Noise,129,4,0,0.44612330000381895,1
4185,104,Larynx,Left cTBS,Tone,Noise,130,3,1,0.6120112000498921,1
4186,104,Larynx,Left cTBS,Tone,Noise,131,1,0,0.680440000025555,1
4187,104,Larynx,Left cTBS,Tone,Noise,132,3,0,0.423148699919693,1
4188,104,Larynx,Left cTBS,Tone,Noise,133,3,0,0.527918900013901,1
4189,104,Larynx,Left cTBS,Tone,Noise,134,1,1,0.456612700014375,1
4190,104,Larynx,Left cTBS,Tone,Noise,135,2,1,0.47975580010097496,1
4191,104,Larynx,Left cTBS,Tone,Noise,136,5,0,0.425373899983242,1
4192,104,Larynx,Left cTBS,Tone,Noise,137,5,0,0.410905099939555,1
4193,104,Larynx,Left cTBS,Tone,Noise,138,4,0,0.48683549999259396,1
4194,104,Larynx,Left cTBS,Tone,Noise,139,3,1,0.45637519995216297,1
4195,104,Larynx,Left cTBS,Tone,Noise,140,3,0,0.6633861999725921,1
4196,104,Larynx,Left cTBS,Tone,Noise,141,5,1,0.568954600021243,1
4197,104,Larynx,Left cTBS,Tone,Noise,142,4,1,0.56369260000065,1
4198,104,Larynx,Left cTBS,Tone,Noise,143,3,0,0.491677399957553,1
4199,104,Larynx,Left cTBS,Tone,Noise,144,2,0,0.43785129999741895,1
4200,104,Larynx,Left cTBS,Tone,Noise,145,4,1,0.456867099972442,1
4201,104,Larynx,Left cTBS,Tone,Noise,146,1,1,0.41160390002187297,1
4202,104,Larynx,Left cTBS,Tone,Noise,147,1,0,0.44200529996305704,1
4203,104,Larynx,Left cTBS,Tone,Noise,148,3,0,0.472714500036091,1
4204,104,Larynx,Left cTBS,Tone,Noise,149,2,0,0.46713519992772495,1
4205,104,Larynx,Left cTBS,Tone,Noise,150,1,1,0.586635899962857,1
4206,104,Larynx,Left cTBS,Tone,Noise,151,5,1,0.41672959993593395,1
4207,104,Larynx,Left cTBS,Tone,Noise,152,2,0,0.446884199976921,1
4208,104,Larynx,Left cTBS,Tone,Noise,153,4,0,0.592513700015843,1
4209,104,Larynx,Left cTBS,Tone,Noise,154,3,1,0.411652300041169,1
4210,104,Larynx,Left cTBS,Tone,Noise,155,3,0,0.721655300003476,1
4211,104,Larynx,Left cTBS,Tone,Noise,156,2,0,0.351999299949966,1
5928,104,Larynx,Sham,Tone,Noise,1,4,0,0.721078100032173,1
5929,104,Larynx,Sham,Tone,Noise,2,2,0,0.48483380000106996,1
5930,104,Larynx,Sham,Tone,Noise,3,4,1,0.5731131999636999,1
5931,104,Larynx,Sham,Tone,Noise,4,1,0,0.530742200033274,1
5932,104,Larynx,Sham,Tone,Noise,5,1,0,0.557072499999776,1
5933,104,Larynx,Sham,Tone,Noise,6,3,0,0.544112699979451,1
5934,104,Larynx,Sham,Tone,Noise,7,2,0,0.543277999968268,1
5935,104,Larynx,Sham,Tone,Noise,8,2,1,0.526052800007164,1
5936,104,Larynx,Sham,Tone,Noise,9,2,0,0.5726001999573779,1
5937,104,Larynx,Sham,Tone,Noise,10,2,0,0.565620500012301,1
5938,104,Larynx,Sham,Tone,Noise,11,4,0,0.503494700009469,1
5939,104,Larynx,Sham,Tone,Noise,12,2,0,0.604114899993874,1
5940,104,Larynx,Sham,Tone,Noise,13,3,0,0.5756124000181441,1
5941,104,Larynx,Sham,Tone,Noise,14,3,0,0.681123099988326,1
5942,104,Larynx,Sham,Tone,Noise,15,3,0,0.5594810000038709,1
5943,104,Larynx,Sham,Tone,Noise,16,1,0,0.5441355999791989,1
5944,104,Larynx,Sham,Tone,Noise,17,4,1,0.5911444000084879,1
5945,104,Larynx,Sham,Tone,Noise,18,5,0,0.6633961000479761,1
5946,104,Larynx,Sham,Tone,Noise,19,4,1,0.5838650999939999,1
5947,104,Larynx,Sham,Tone,Noise,20,5,0,0.7384013999835591,1
5948,104,Larynx,Sham,Tone,Noise,21,3,0,0.678178699978162,1
5949,104,Larynx,Sham,Tone,Noise,22,1,1,0.5476763999904509,1
5950,104,Larynx,Sham,Tone,Noise,23,3,1,0.625986099999864,1
5951,104,Larynx,Sham,Tone,Noise,24,1,1,0.582499500014819,1
5952,104,Larynx,Sham,Tone,Noise,25,3,1,0.8342295000329609,1
5953,104,Larynx,Sham,Tone,Noise,26,5,0,0.5506119999918161,1
5954,104,Larynx,Sham,Tone,Noise,27,5,0,0.56515420001233,1
5955,104,Larynx,Sham,Tone,Noise,28,4,0,0.5348902000114321,1
5956,104,Larynx,Sham,Tone,Noise,29,3,0,0.567466799984686,1
5957,104,Larynx,Sham,Tone,Noise,30,3,1,0.559918400016613,1
5958,104,Larynx,Sham,Tone,Noise,31,2,0,0.557169499981683,1
5959,104,Larynx,Sham,Tone,Noise,32,1,0,0.74911279999651,1
5960,104,Larynx,Sham,Tone,Noise,33,5,0,0.6357098000007679,1
5961,104,Larynx,Sham,Tone,Noise,34,5,0,0.585460999980569,1
5962,104,Larynx,Sham,Tone,Noise,35,4,1,0.568911100039259,1
5963,104,Larynx,Sham,Tone,Noise,36,3,1,0.564573400013614,1
5964,104,Larynx,Sham,Tone,Noise,37,3,1,0.574534600018524,1
5965,104,Larynx,Sham,Tone,Noise,38,4,1,0.657987700018566,1
5966,104,Larynx,Sham,Tone,Noise,39,2,0,0.5614317999570629,1
5967,104,Larynx,Sham,Tone,Noise,40,3,1,0.665267900039908,1
5968,104,Larynx,Sham,Tone,Noise,41,4,0,0.73318930005189,1
5969,104,Larynx,Sham,Tone,Noise,42,2,0,0.607244100014213,1
5970,104,Larynx,Sham,Tone,Noise,43,5,0,0.541152199963108,1
5971,104,Larynx,Sham,Tone,Noise,44,2,0,0.665589899988845,1
5972,104,Larynx,Sham,Tone,Noise,45,3,1,0.77681999997003,1
5973,104,Larynx,Sham,Tone,Noise,46,2,1,0.44204870000248797,1
5974,104,Larynx,Sham,Tone,Noise,47,5,1,0.537310299987439,1
5975,104,Larynx,Sham,Tone,Noise,48,1,1,0.6422468999517149,1
5976,104,Larynx,Sham,Tone,Noise,49,3,0,0.565530100022443,1
5977,104,Larynx,Sham,Tone,Noise,50,4,0,0.49788430001353795,1
5978,104,Larynx,Sham,Tone,Noise,51,3,0,0.45193039998412105,1
5979,104,Larynx,Sham,Tone,Noise,52,5,0,0.437437299988233,1
5980,104,Larynx,Sham,Tone,Noise,53,4,0,0.747971799981315,1
5981,104,Larynx,Sham,Tone,Noise,54,4,1,0.530940999975428,1
5982,104,Larynx,Sham,Tone,Noise,55,2,1,0.47309549996862205,1
5983,104,Larynx,Sham,Tone,Noise,56,4,0,0.537622400035616,1
5984,104,Larynx,Sham,Tone,Noise,57,3,0,0.492862300015986,1
5985,104,Larynx,Sham,Tone,Noise,58,1,0,0.47359499998856297,1
5986,104,Larynx,Sham,Tone,Noise,59,2,0,0.490723899973091,1
5987,104,Larynx,Sham,Tone,Noise,60,3,1,0.496119900024496,1
5988,104,Larynx,Sham,Tone,Noise,61,5,1,0.6845700000412761,1
5989,104,Larynx,Sham,Tone,Noise,62,4,0,0.6844191999989561,1
5990,104,Larynx,Sham,Tone,Noise,63,1,0,0.6096736000035891,1
5991,104,Larynx,Sham,Tone,Noise,64,5,1,0.49231960001634395,1
5992,104,Larynx,Sham,Tone,Noise,65,2,1,0.452869299973827,1
5993,104,Larynx,Sham,Tone,Noise,66,3,0,0.545471900026314,1
5994,104,Larynx,Sham,Tone,Noise,67,1,1,0.47453480004333004,1
5995,104,Larynx,Sham,Tone,Noise,68,4,0,0.561209699953906,1
5996,104,Larynx,Sham,Tone,Noise,69,1,0,0.6048969000112271,1
5997,104,Larynx,Sham,Tone,Noise,70,1,1,0.49374850001186105,1
5998,104,Larynx,Sham,Tone,Noise,71,3,1,0.473354799964,1
5999,104,Larynx,Sham,Tone,Noise,72,5,0,0.579075700021349,1
6000,104,Larynx,Sham,Tone,Noise,73,2,0,0.3917685000342321,1
6001,104,Larynx,Sham,Tone,Noise,74,4,0,0.543305600003805,1
6002,104,Larynx,Sham,Tone,Noise,75,2,0,0.431050800019875,1
6003,104,Larynx,Sham,Tone,Noise,76,3,0,0.533058500033803,1
6004,104,Larynx,Sham,Tone,Noise,77,3,0,0.6005571999703531,1
6005,104,Larynx,Sham,Tone,Noise,78,3,1,0.592700000037439,1
6006,104,Larynx,Sham,Tone,Noise,79,2,1,0.498178099980578,1
6007,104,Larynx,Sham,Tone,Noise,80,4,1,0.602714899985585,1
6008,104,Larynx,Sham,Tone,Noise,81,4,0,0.47929869999643393,1
6009,104,Larynx,Sham,Tone,Noise,82,2,0,0.46527829999104103,1
6010,104,Larynx,Sham,Tone,Noise,83,3,0,0.48799880000296997,1
6011,104,Larynx,Sham,Tone,Noise,84,3,0,0.4458218999789099,1
6012,104,Larynx,Sham,Tone,Noise,85,1,0,0.48976989998482207,1
6013,104,Larynx,Sham,Tone,Noise,86,4,1,0.5404419999686071,1
6014,104,Larynx,Sham,Tone,Noise,87,3,1,0.4778309999965129,1
6015,104,Larynx,Sham,Tone,Noise,88,2,1,0.716975499992259,1
6016,104,Larynx,Sham,Tone,Noise,89,5,0,0.5222041999804791,1
6017,104,Larynx,Sham,Tone,Noise,90,1,0,0.47537200001534097,1
6018,104,Larynx,Sham,Tone,Noise,91,5,0,0.45858600002247796,1
6019,104,Larynx,Sham,Tone,Noise,92,4,0,0.540820199996233,1
6020,104,Larynx,Sham,Tone,Noise,93,3,0,0.48614469997119203,1
6021,104,Larynx,Sham,Tone,Noise,94,1,1,0.4814085999969389,1
6022,104,Larynx,Sham,Tone,Noise,95,5,1,0.55114420002792,1
6023,104,Larynx,Sham,Tone,Noise,96,3,0,0.668481400003657,1
6024,104,Larynx,Sham,Tone,Noise,97,4,0,0.521411299996544,1
6025,104,Larynx,Sham,Tone,Noise,98,3,0,0.540208399994299,1
6026,104,Larynx,Sham,Tone,Noise,99,2,0,0.744847199996002,1
6027,104,Larynx,Sham,Tone,Noise,100,3,0,0.474689599999692,1
6028,104,Larynx,Sham,Tone,Noise,101,3,0,0.41341410001041395,1
6029,104,Larynx,Sham,Tone,Noise,102,2,0,0.4911456999834629,1
6030,104,Larynx,Sham,Tone,Noise,103,5,0,0.47191129997372605,1
6031,104,Larynx,Sham,Tone,Noise,104,5,1,0.47046559996670095,1
6032,104,Larynx,Sham,Tone,Noise,105,1,0,0.560421600006521,1
6033,104,Larynx,Sham,Tone,Noise,106,3,1,0.5007881000055929,1
6034,104,Larynx,Sham,Tone,Noise,107,4,0,0.601712499978021,1
6035,104,Larynx,Sham,Tone,Noise,108,2,1,0.509959299990442,1
6036,104,Larynx,Sham,Tone,Noise,109,3,1,0.52119749999838,1
6037,104,Larynx,Sham,Tone,Noise,110,3,1,0.44149930001003707,1
6038,104,Larynx,Sham,Tone,Noise,111,2,1,0.5515311000053771,1
6039,104,Larynx,Sham,Tone,Noise,112,1,0,0.6170075000263749,1
6040,104,Larynx,Sham,Tone,Noise,113,4,1,0.46622520004166296,1
6041,104,Larynx,Sham,Tone,Noise,114,5,0,0.495466399996076,1
6042,104,Larynx,Sham,Tone,Noise,115,1,1,0.403656199981924,1
6043,104,Larynx,Sham,Tone,Noise,116,2,0,0.7167495000176128,1
6044,104,Larynx,Sham,Tone,Noise,117,4,0,0.500442199991085,1
6045,104,Larynx,Sham,Tone,Noise,118,3,1,0.466377799981274,1
6046,104,Larynx,Sham,Tone,Noise,119,4,1,0.5511476999963629,1
6047,104,Larynx,Sham,Tone,Noise,120,2,1,0.470367399975657,1
6048,104,Larynx,Sham,Tone,Noise,121,1,0,0.601513499976136,1
6049,104,Larynx,Sham,Tone,Noise,122,1,1,0.735028699971735,1
6050,104,Larynx,Sham,Tone,Noise,123,3,1,0.538167499995325,1
6051,104,Larynx,Sham,Tone,Noise,124,3,0,0.6073021999909539,1
6052,104,Larynx,Sham,Tone,Noise,125,5,1,0.568984500016086,1
6053,104,Larynx,Sham,Tone,Noise,126,5,0,0.513225500006229,1
6054,104,Larynx,Sham,Tone,Noise,127,3,0,0.736149900010787,1
6055,104,Larynx,Sham,Tone,Noise,128,3,1,0.5280663000303321,1
6056,104,Larynx,Sham,Tone,Noise,129,3,1,0.5515596999903211,1
6057,104,Larynx,Sham,Tone,Noise,130,4,1,0.625569799973164,1
6058,104,Larynx,Sham,Tone,Noise,131,2,0,0.6369198999600489,1
6059,104,Larynx,Sham,Tone,Noise,132,3,1,0.501542199985124,1
6060,104,Larynx,Sham,Tone,Noise,133,4,1,0.539637000008952,1
6061,104,Larynx,Sham,Tone,Noise,134,5,0,0.620336699998006,1
6062,104,Larynx,Sham,Tone,Noise,135,4,1,0.580375500023365,1
6063,104,Larynx,Sham,Tone,Noise,136,5,1,0.683336600020994,1
6064,104,Larynx,Sham,Tone,Noise,137,3,0,0.6495159000041889,1
6065,104,Larynx,Sham,Tone,Noise,138,2,1,0.5070576999569311,1
6066,104,Larynx,Sham,Tone,Noise,139,3,1,0.709250800020527,1
6067,104,Larynx,Sham,Tone,Noise,140,4,0,0.612509300000966,1
6068,104,Larynx,Sham,Tone,Noise,141,1,0,0.535696999984793,1
6069,104,Larynx,Sham,Tone,Noise,142,1,0,0.6090456999954771,1
6070,104,Larynx,Sham,Tone,Noise,143,2,0,0.538134300033562,1
6071,104,Larynx,Sham,Tone,Noise,144,2,1,0.5248566000373099,1
6072,104,Larynx,Sham,Tone,Noise,145,5,1,0.7452599999960509,1
6073,104,Larynx,Sham,Tone,Noise,146,4,1,0.5981716000242161,1
6074,104,Larynx,Sham,Tone,Noise,147,2,0,0.604396100039594,1
6075,104,Larynx,Sham,Tone,Noise,148,4,0,0.615038499992806,1
6076,104,Larynx,Sham,Tone,Noise,149,2,0,0.473287599976175,1
6077,104,Larynx,Sham,Tone,Noise,150,3,0,0.585076400020625,1
6078,104,Larynx,Sham,Tone,Noise,151,1,0,0.503993599966634,1
6079,104,Larynx,Sham,Tone,Noise,152,1,0,0.5577776000136511,1
6080,104,Larynx,Sham,Tone,Noise,153,3,1,0.543309099972248,1
6081,104,Larynx,Sham,Tone,Noise,154,4,0,0.6660541000310329,1
6082,104,Larynx,Sham,Tone,Noise,155,2,0,0.660035100008827,1
6083,104,Larynx,Sham,Tone,Noise,156,5,0,0.5925278999493461,1
7176,123,Larynx,Left cTBS,Tone,Noise,1,4,1,2.04169079998974,1
7177,123,Larynx,Left cTBS,Tone,Noise,2,2,0,2.1218373999872697,1
7178,123,Larynx,Left cTBS,Tone,Noise,3,4,1,1.1566426999925201,1
7179,123,Larynx,Left cTBS,Tone,Noise,4,1,1,0.888125099998433,1
7180,123,Larynx,Left cTBS,Tone,Noise,5,1,1,1.02094069999293,1
7181,123,Larynx,Left cTBS,Tone,Noise,6,3,1,0.8129225000157021,1
7182,123,Larynx,Left cTBS,Tone,Noise,7,2,1,1.6767314999888199,1
7183,123,Larynx,Left cTBS,Tone,Noise,8,2,0,0.7450969000055921,1
7184,123,Larynx,Left cTBS,Tone,Noise,9,2,0,0.9254666999913751,1
7185,123,Larynx,Left cTBS,Tone,Noise,10,2,1,0.506436900002882,1
7186,123,Larynx,Left cTBS,Tone,Noise,11,4,1,1.4848283999890601,1
7187,123,Larynx,Left cTBS,Tone,Noise,12,2,0,1.09800900000846,1
7188,123,Larynx,Left cTBS,Tone,Noise,13,3,1,1.34064169999328,1
7189,123,Larynx,Left cTBS,Tone,Noise,14,3,1,1.69006880000234,1
7190,123,Larynx,Left cTBS,Tone,Noise,15,3,1,2.04761850001523,1
7191,123,Larynx,Left cTBS,Tone,Noise,16,1,0,1.12248590000672,1
7192,123,Larynx,Left cTBS,Tone,Noise,17,4,1,3.18749470001785,1
7193,123,Larynx,Left cTBS,Tone,Noise,18,5,1,2.22808459997759,1
7194,123,Larynx,Left cTBS,Tone,Noise,19,4,0,1.13928119998309,1
7195,123,Larynx,Left cTBS,Tone,Noise,20,5,0,2.1082888000237303,1
7196,123,Larynx,Left cTBS,Tone,Noise,21,3,0,0.941078100004233,1
7197,123,Larynx,Left cTBS,Tone,Noise,22,1,1,0.701899100007722,1
7198,123,Larynx,Left cTBS,Tone,Noise,23,3,1,0.473235799989197,1
7199,123,Larynx,Left cTBS,Tone,Noise,24,1,1,0.345381299994187,1
7200,123,Larynx,Left cTBS,Tone,Noise,25,3,1,0.348532400006661,1
7201,123,Larynx,Left cTBS,Tone,Noise,26,5,1,0.34677740000188395,1
7202,123,Larynx,Left cTBS,Tone,Noise,27,5,1,0.33571139999548905,1
7203,123,Larynx,Left cTBS,Tone,Noise,28,4,1,0.322855699982028,1
7204,123,Larynx,Left cTBS,Tone,Noise,29,3,1,0.361199500010116,1
7205,123,Larynx,Left cTBS,Tone,Noise,30,3,1,0.32897279999451695,1
7206,123,Larynx,Left cTBS,Tone,Noise,31,2,1,0.414659600006416,1
7207,123,Larynx,Left cTBS,Tone,Noise,32,1,1,0.41877129999920704,1
7208,123,Larynx,Left cTBS,Tone,Noise,33,5,1,0.43540149999898903,1
7209,123,Larynx,Left cTBS,Tone,Noise,34,5,1,0.411013099976117,1
7210,123,Larynx,Left cTBS,Tone,Noise,35,4,1,0.34960239997599296,1
7211,123,Larynx,Left cTBS,Tone,Noise,36,3,1,0.341951999987941,1
7212,123,Larynx,Left cTBS,Tone,Noise,37,3,1,0.14672970000538002,1
7213,123,Larynx,Left cTBS,Tone,Noise,38,4,1,0.324164599995129,1
7214,123,Larynx,Left cTBS,Tone,Noise,39,2,1,0.345518100017216,1
7215,123,Larynx,Left cTBS,Tone,Noise,40,3,1,0.15504339998005898,1
7216,123,Larynx,Left cTBS,Tone,Noise,41,4,1,0.70199830000638,1
7217,123,Larynx,Left cTBS,Tone,Noise,42,2,1,0.501012599997921,1
7218,123,Larynx,Left cTBS,Tone,Noise,43,5,1,0.41629409999586603,1
7219,123,Larynx,Left cTBS,Tone,Noise,44,2,1,0.7006277000182309,1
7220,123,Larynx,Left cTBS,Tone,Noise,45,3,1,0.926131399988662,1
7221,123,Larynx,Left cTBS,Tone,Noise,46,2,1,1.18710589999682,1
7222,123,Larynx,Left cTBS,Tone,Noise,47,5,1,0.8175036000029651,1
7223,123,Larynx,Left cTBS,Tone,Noise,48,1,0,0.501594400004251,1
7224,123,Larynx,Left cTBS,Tone,Noise,49,3,1,0.892330700007733,1
7225,123,Larynx,Left cTBS,Tone,Noise,50,4,1,0.507686299999477,1
7226,123,Larynx,Left cTBS,Tone,Noise,51,3,1,0.37561039999127394,1
7227,123,Larynx,Left cTBS,Tone,Noise,52,5,1,0.39829569999710707,1
7228,123,Larynx,Left cTBS,Tone,Noise,53,4,1,0.376035900000716,1
7229,123,Larynx,Left cTBS,Tone,Noise,54,4,1,0.36719710001489103,1
7230,123,Larynx,Left cTBS,Tone,Noise,55,2,1,0.8849862999923059,1
7231,123,Larynx,Left cTBS,Tone,Noise,56,4,0,0.8451814000145529,1
7232,123,Larynx,Left cTBS,Tone,Noise,57,3,1,0.46204429998761,1
7233,123,Larynx,Left cTBS,Tone,Noise,58,1,1,0.619344700011425,1
7234,123,Larynx,Left cTBS,Tone,Noise,59,2,1,0.540149600012228,1
7235,123,Larynx,Left cTBS,Tone,Noise,60,3,1,0.42256599999382205,1
7236,123,Larynx,Left cTBS,Tone,Noise,61,5,1,0.490053999994416,1
7237,123,Larynx,Left cTBS,Tone,Noise,62,4,1,0.45663090000744,1
7238,123,Larynx,Left cTBS,Tone,Noise,63,1,1,0.625217099994188,1
7239,123,Larynx,Left cTBS,Tone,Noise,64,5,1,0.6357397999963721,1
7240,123,Larynx,Left cTBS,Tone,Noise,65,2,1,0.599788899999112,1
7241,123,Larynx,Left cTBS,Tone,Noise,66,3,0,0.657834799989359,1
7242,123,Larynx,Left cTBS,Tone,Noise,67,1,1,0.34927569999126695,1
7243,123,Larynx,Left cTBS,Tone,Noise,68,4,1,0.326100700011011,1
7244,123,Larynx,Left cTBS,Tone,Noise,69,1,1,0.323964699986391,1
7245,123,Larynx,Left cTBS,Tone,Noise,70,1,1,0.39365589999942996,1
7246,123,Larynx,Left cTBS,Tone,Noise,71,3,1,0.543518399994355,1
7247,123,Larynx,Left cTBS,Tone,Noise,72,5,1,0.40601569999125803,1
7248,123,Larynx,Left cTBS,Tone,Noise,73,2,1,0.39657839998835703,1
7249,123,Larynx,Left cTBS,Tone,Noise,74,4,1,0.5866778999916279,1
7250,123,Larynx,Left cTBS,Tone,Noise,75,2,1,0.42954230000032106,1
7251,123,Larynx,Left cTBS,Tone,Noise,76,3,1,0.45995719998609297,1
7252,123,Larynx,Left cTBS,Tone,Noise,77,3,1,0.540327399998205,1
7253,123,Larynx,Left cTBS,Tone,Noise,78,3,0,0.506936899997527,1
7254,123,Larynx,Left cTBS,Tone,Noise,79,2,1,0.48414559999946505,1
7255,123,Larynx,Left cTBS,Tone,Noise,80,4,1,0.375059900019551,1
7256,123,Larynx,Left cTBS,Tone,Noise,81,4,1,0.535453800024698,1
7257,123,Larynx,Left cTBS,Tone,Noise,82,2,1,0.36933289997978097,1
7258,123,Larynx,Left cTBS,Tone,Noise,83,3,1,0.380749300005846,1
7259,123,Larynx,Left cTBS,Tone,Noise,84,3,0,0.623324599990156,1
7260,123,Larynx,Left cTBS,Tone,Noise,85,1,1,0.5528234000084921,1
7261,123,Larynx,Left cTBS,Tone,Noise,86,4,1,0.262338100001216,1
7262,123,Larynx,Left cTBS,Tone,Noise,87,3,1,0.353963899979135,1
7263,123,Larynx,Left cTBS,Tone,Noise,88,2,1,0.42297059998964004,1
7264,123,Larynx,Left cTBS,Tone,Noise,89,5,1,0.457652299985057,1
7265,123,Larynx,Left cTBS,Tone,Noise,90,1,1,0.511698800022714,1
7266,123,Larynx,Left cTBS,Tone,Noise,91,5,1,1.16686029999983,1
7267,123,Larynx,Left cTBS,Tone,Noise,92,4,1,0.8404266000143249,1
7268,123,Larynx,Left cTBS,Tone,Noise,93,3,1,0.5336440000100989,1
7269,123,Larynx,Left cTBS,Tone,Noise,94,1,1,0.7727187999989841,1
7270,123,Larynx,Left cTBS,Tone,Noise,95,5,1,0.483026300003985,1
7271,123,Larynx,Left cTBS,Tone,Noise,96,3,0,0.800759999983711,1
7272,123,Larynx,Left cTBS,Tone,Noise,97,4,1,0.713803899998311,1
7273,123,Larynx,Left cTBS,Tone,Noise,98,3,1,0.699151000007987,1
7274,123,Larynx,Left cTBS,Tone,Noise,99,2,1,0.41692419999162705,1
7275,123,Larynx,Left cTBS,Tone,Noise,100,3,1,0.400654800003394,1
7276,123,Larynx,Left cTBS,Tone,Noise,101,3,1,0.540804899996147,1
7277,123,Larynx,Left cTBS,Tone,Noise,102,2,1,0.314889700006461,1
7278,123,Larynx,Left cTBS,Tone,Noise,103,5,1,0.17546060000313402,1
7279,123,Larynx,Left cTBS,Tone,Noise,104,5,1,0.30930240001180204,1
7280,123,Larynx,Left cTBS,Tone,Noise,105,1,1,0.21773400000529397,1
7281,123,Larynx,Left cTBS,Tone,Noise,106,3,1,0.14436340000247597,1
7282,123,Larynx,Left cTBS,Tone,Noise,107,4,1,0.44340349998674394,1
7283,123,Larynx,Left cTBS,Tone,Noise,108,2,1,0.6479529999778609,1
7284,123,Larynx,Left cTBS,Tone,Noise,109,3,0,0.576752699998906,1
7285,123,Larynx,Left cTBS,Tone,Noise,110,3,1,0.7974558999994771,1
7286,123,Larynx,Left cTBS,Tone,Noise,111,2,1,0.9689663999888579,1
7287,123,Larynx,Left cTBS,Tone,Noise,112,1,1,1.23898880000343,1
7288,123,Larynx,Left cTBS,Tone,Noise,113,4,1,0.9718412999936851,1
7289,123,Larynx,Left cTBS,Tone,Noise,114,5,0,0.504282900015824,1
7290,123,Larynx,Left cTBS,Tone,Noise,115,1,0,0.577486299996963,1
7291,123,Larynx,Left cTBS,Tone,Noise,116,2,0,0.904114600009052,1
7292,123,Larynx,Left cTBS,Tone,Noise,117,4,0,0.6273367000103461,1
7293,123,Larynx,Left cTBS,Tone,Noise,118,3,0,0.495534599991515,1
7294,123,Larynx,Left cTBS,Tone,Noise,119,4,0,0.45108159998199,1
7295,123,Larynx,Left cTBS,Tone,Noise,120,2,1,0.31218390000867696,1
7296,123,Larynx,Left cTBS,Tone,Noise,121,1,1,0.380809800000861,1
7297,123,Larynx,Left cTBS,Tone,Noise,122,1,1,0.21222119999583802,1
7298,123,Larynx,Left cTBS,Tone,Noise,123,3,1,1.1770652999985,1
7299,123,Larynx,Left cTBS,Tone,Noise,124,3,0,1.7701038999948702,1
7300,123,Larynx,Left cTBS,Tone,Noise,125,5,1,0.787377800006652,1
7301,123,Larynx,Left cTBS,Tone,Noise,126,5,1,1.3341408999986,1
7302,123,Larynx,Left cTBS,Tone,Noise,127,3,1,0.692835699999705,1
7303,123,Larynx,Left cTBS,Tone,Noise,128,3,1,0.5976613999810071,1
7304,123,Larynx,Left cTBS,Tone,Noise,129,3,1,0.5756222000054549,1
7305,123,Larynx,Left cTBS,Tone,Noise,130,4,1,0.516428599978099,1
7306,123,Larynx,Left cTBS,Tone,Noise,131,2,1,1.06881759999669,1
7307,123,Larynx,Left cTBS,Tone,Noise,132,3,0,0.836557400005404,1
7308,123,Larynx,Left cTBS,Tone,Noise,133,4,1,0.654349399992498,1
7309,123,Larynx,Left cTBS,Tone,Noise,134,5,1,0.47326480000629106,1
7310,123,Larynx,Left cTBS,Tone,Noise,135,4,1,0.401945899997372,1
7311,123,Larynx,Left cTBS,Tone,Noise,136,5,1,0.388435000000754,1
7312,123,Larynx,Left cTBS,Tone,Noise,137,3,1,0.48590140001033394,1
7313,123,Larynx,Left cTBS,Tone,Noise,138,2,1,0.5856943000108,1
7314,123,Larynx,Left cTBS,Tone,Noise,139,3,0,0.9908785000152421,1
7315,123,Larynx,Left cTBS,Tone,Noise,140,4,1,0.634095699992031,1
7316,123,Larynx,Left cTBS,Tone,Noise,141,1,1,0.43357090000063203,1
7317,123,Larynx,Left cTBS,Tone,Noise,142,1,1,0.48037989999284,1
7318,123,Larynx,Left cTBS,Tone,Noise,143,2,1,0.38340920000337103,1
7319,123,Larynx,Left cTBS,Tone,Noise,144,2,0,0.756259799993131,1
7320,123,Larynx,Left cTBS,Tone,Noise,145,5,1,0.46137249999446794,1
7321,123,Larynx,Left cTBS,Tone,Noise,146,4,1,0.319991600001231,1
7322,123,Larynx,Left cTBS,Tone,Noise,147,2,1,0.284046399989165,1
7323,123,Larynx,Left cTBS,Tone,Noise,148,4,1,0.3268639000016261,1
7324,123,Larynx,Left cTBS,Tone,Noise,149,2,1,0.0037735000078100702,1
7325,123,Larynx,Left cTBS,Tone,Noise,150,3,1,0.472636000020429,1
7326,123,Larynx,Left cTBS,Tone,Noise,151,1,1,0.294335399987176,1
7327,123,Larynx,Left cTBS,Tone,Noise,152,1,0,0.341436100017745,1
7328,123,Larynx,Left cTBS,Tone,Noise,153,3,0,0.38584439997794107,1
7329,123,Larynx,Left cTBS,Tone,Noise,154,4,0,0.412636400025804,1
7330,123,Larynx,Left cTBS,Tone,Noise,155,2,1,0.396460100018885,1
7331,123,Larynx,Left cTBS,Tone,Noise,156,5,0,0.318290399998659,1
9048,123,Larynx,Sham,Tone,Noise,1,3,0,1.59242689993698,1
9049,123,Larynx,Sham,Tone,Noise,2,4,1,0.696354900021106,1
9050,123,Larynx,Sham,Tone,Noise,3,4,1,0.6506760999327529,1
9051,123,Larynx,Sham,Tone,Noise,4,5,1,0.5549611999886109,1
9052,123,Larynx,Sham,Tone,Noise,5,4,1,0.502827699994668,1
9053,123,Larynx,Sham,Tone,Noise,6,4,0,0.514692299999297,1
9054,123,Larynx,Sham,Tone,Noise,7,5,0,0.49587640003301203,1
9055,123,Larynx,Sham,Tone,Noise,8,5,1,0.622036900022067,1
9056,123,Larynx,Sham,Tone,Noise,9,1,0,0.500369399902411,1
9057,123,Larynx,Sham,Tone,Noise,10,3,1,0.544731800095178,1
9058,123,Larynx,Sham,Tone,Noise,11,5,1,0.496568000060506,1
9059,123,Larynx,Sham,Tone,Noise,12,2,1,0.49257460003718706,1
9060,123,Larynx,Sham,Tone,Noise,13,3,1,0.539122699992731,1
9061,123,Larynx,Sham,Tone,Noise,14,1,0,0.6845943999942391,1
9062,123,Larynx,Sham,Tone,Noise,15,1,0,0.7417686000699181,1
9063,123,Larynx,Sham,Tone,Noise,16,2,0,0.6659100999822839,1
9064,123,Larynx,Sham,Tone,Noise,17,3,1,0.503339300048538,1
9065,123,Larynx,Sham,Tone,Noise,18,1,0,0.786738299997523,1
9066,123,Larynx,Sham,Tone,Noise,19,3,1,0.45768160000443503,1
9067,123,Larynx,Sham,Tone,Noise,20,3,1,0.647278600023128,1
9068,123,Larynx,Sham,Tone,Noise,21,3,1,0.548036399995908,1
9069,123,Larynx,Sham,Tone,Noise,22,4,1,0.5245433000382039,1
9070,123,Larynx,Sham,Tone,Noise,23,4,1,0.42736080009490296,1
9071,123,Larynx,Sham,Tone,Noise,24,5,1,0.49456220003776297,1
9072,123,Larynx,Sham,Tone,Noise,25,3,1,0.462109899963252,1
9073,123,Larynx,Sham,Tone,Noise,26,3,1,0.37458730000071205,1
9074,123,Larynx,Sham,Tone,Noise,27,3,0,0.458560999948531,1
9075,123,Larynx,Sham,Tone,Noise,28,1,0,0.656950399978086,1
9076,123,Larynx,Sham,Tone,Noise,29,4,0,0.6841642999788751,1
9077,123,Larynx,Sham,Tone,Noise,30,2,1,0.383285799995065,1
9078,123,Larynx,Sham,Tone,Noise,31,2,1,0.6298704000655561,1
9079,123,Larynx,Sham,Tone,Noise,32,3,1,0.772824999992736,1
9080,123,Larynx,Sham,Tone,Noise,33,4,1,0.8584556999849159,1
9081,123,Larynx,Sham,Tone,Noise,34,5,1,0.676483100047335,1
9082,123,Larynx,Sham,Tone,Noise,35,2,0,0.629101800033823,1
9083,123,Larynx,Sham,Tone,Noise,36,2,0,0.723731999984011,1
9084,123,Larynx,Sham,Tone,Noise,37,2,1,0.46525400003884004,1
9085,123,Larynx,Sham,Tone,Noise,38,1,1,0.6174186000134799,1
9086,123,Larynx,Sham,Tone,Noise,39,2,0,1.30822440003976,1
9087,123,Larynx,Sham,Tone,Noise,40,4,1,0.5227291000774129,1
9088,123,Larynx,Sham,Tone,Noise,41,3,1,0.48924440005794206,1
9089,123,Larynx,Sham,Tone,Noise,42,4,1,0.657489200006239,1
9090,123,Larynx,Sham,Tone,Noise,43,1,0,0.5936587000032889,1
9091,123,Larynx,Sham,Tone,Noise,44,1,0,0.527335299993865,1
9092,123,Larynx,Sham,Tone,Noise,45,2,0,0.46391739998944104,1
9093,123,Larynx,Sham,Tone,Noise,46,4,0,0.398886000039056,1
9094,123,Larynx,Sham,Tone,Noise,47,4,0,0.659974400070496,1
9095,123,Larynx,Sham,Tone,Noise,48,5,1,0.503399999928661,1
9096,123,Larynx,Sham,Tone,Noise,49,4,1,0.599332300014794,1
9097,123,Larynx,Sham,Tone,Noise,50,2,0,0.6128537999466059,1
9098,123,Larynx,Sham,Tone,Noise,51,1,0,0.46886350004933797,1
9099,123,Larynx,Sham,Tone,Noise,52,3,0,0.49925560003612196,1
9100,123,Larynx,Sham,Tone,Noise,53,5,1,0.46627289999742105,1
9101,123,Larynx,Sham,Tone,Noise,54,2,0,0.62156550004147,1
9102,123,Larynx,Sham,Tone,Noise,55,2,1,0.546625000075437,1
9103,123,Larynx,Sham,Tone,Noise,56,3,0,0.691257999977097,1
9104,123,Larynx,Sham,Tone,Noise,57,5,1,0.5518569999840109,1
9105,123,Larynx,Sham,Tone,Noise,58,3,0,0.551289699971676,1
9106,123,Larynx,Sham,Tone,Noise,59,3,0,0.6538087999215351,1
9107,123,Larynx,Sham,Tone,Noise,60,2,0,0.8248271000338722,1
9108,123,Larynx,Sham,Tone,Noise,61,3,1,0.720619600033388,1
9109,123,Larynx,Sham,Tone,Noise,62,4,1,0.9653513999655842,1
9110,123,Larynx,Sham,Tone,Noise,63,3,1,0.707755799987353,1
9111,123,Larynx,Sham,Tone,Noise,64,5,1,0.49116520001553005,1
9112,123,Larynx,Sham,Tone,Noise,65,3,1,0.49045489996206,1
9113,123,Larynx,Sham,Tone,Noise,66,3,1,0.767231700010598,1
9114,123,Larynx,Sham,Tone,Noise,67,4,1,0.633380900020711,1
9115,123,Larynx,Sham,Tone,Noise,68,1,0,0.7817493000766259,1
9116,123,Larynx,Sham,Tone,Noise,69,3,0,0.6472569999750699,1
9117,123,Larynx,Sham,Tone,Noise,70,5,1,0.5252096999902279,1
9118,123,Larynx,Sham,Tone,Noise,71,3,0,0.651475400081836,1
9119,123,Larynx,Sham,Tone,Noise,72,4,0,0.599002199945971,1
9120,123,Larynx,Sham,Tone,Noise,73,5,1,0.7334603000199421,1
9121,123,Larynx,Sham,Tone,Noise,74,2,0,0.7530368999578059,1
9122,123,Larynx,Sham,Tone,Noise,75,1,0,0.661775600048713,1
9123,123,Larynx,Sham,Tone,Noise,76,2,1,0.704573600087315,1
9124,123,Larynx,Sham,Tone,Noise,77,1,0,0.6961031999671831,1
9125,123,Larynx,Sham,Tone,Noise,78,2,1,0.43373709998559207,1
9126,123,Larynx,Sham,Tone,Noise,79,5,1,0.5139532999601221,1
9127,123,Larynx,Sham,Tone,Noise,80,2,1,1.10844189999625,1
9128,123,Larynx,Sham,Tone,Noise,81,2,1,0.731595000019297,1
9129,123,Larynx,Sham,Tone,Noise,82,2,0,0.652026599971578,1
9130,123,Larynx,Sham,Tone,Noise,83,4,1,0.547824600012973,1
9131,123,Larynx,Sham,Tone,Noise,84,2,0,0.8061599000357091,1
9132,123,Larynx,Sham,Tone,Noise,85,2,0,0.900671100011095,1
9133,123,Larynx,Sham,Tone,Noise,86,1,0,0.655158999958076,1
9134,123,Larynx,Sham,Tone,Noise,87,5,1,0.526103800046258,1
9135,123,Larynx,Sham,Tone,Noise,88,5,1,0.5959061000030489,1
9136,123,Larynx,Sham,Tone,Noise,89,3,0,0.653883000020869,1
9137,123,Larynx,Sham,Tone,Noise,90,3,0,0.8744358000112701,1
9138,123,Larynx,Sham,Tone,Noise,91,3,0,0.6041117999702691,1
9139,123,Larynx,Sham,Tone,Noise,92,4,1,0.42993760004174003,1
9140,123,Larynx,Sham,Tone,Noise,93,4,1,0.4624716000398621,1
9141,123,Larynx,Sham,Tone,Noise,94,5,1,0.6318523000227291,1
9142,123,Larynx,Sham,Tone,Noise,95,4,0,0.6966855000937359,1
9143,123,Larynx,Sham,Tone,Noise,96,5,1,0.612083199899644,1
9144,123,Larynx,Sham,Tone,Noise,97,1,0,0.620558499940671,1
9145,123,Larynx,Sham,Tone,Noise,98,3,1,0.481433999957517,1
9146,123,Larynx,Sham,Tone,Noise,99,1,0,0.674342400045134,1
9147,123,Larynx,Sham,Tone,Noise,100,3,0,0.8513053000206129,1
9148,123,Larynx,Sham,Tone,Noise,101,1,0,0.930136900045909,1
9149,123,Larynx,Sham,Tone,Noise,102,4,1,0.49536770000122493,1
9150,123,Larynx,Sham,Tone,Noise,103,3,0,0.67329389997758,1
9151,123,Larynx,Sham,Tone,Noise,104,4,1,0.386298800003715,1
9152,123,Larynx,Sham,Tone,Noise,105,2,0,0.6475276000564921,1
9153,123,Larynx,Sham,Tone,Noise,106,3,1,0.47133339999709295,1
9154,123,Larynx,Sham,Tone,Noise,107,3,0,0.600107899983414,1
9155,123,Larynx,Sham,Tone,Noise,108,5,1,0.347848600009456,1
9156,123,Larynx,Sham,Tone,Noise,109,3,0,0.5606765000848101,1
9157,123,Larynx,Sham,Tone,Noise,110,2,1,0.526770999887958,1
9158,123,Larynx,Sham,Tone,Noise,111,1,1,0.362408099928871,1
9159,123,Larynx,Sham,Tone,Noise,112,4,1,0.546374200028367,1
9160,123,Larynx,Sham,Tone,Noise,113,3,1,0.6865660999901589,1
9161,123,Larynx,Sham,Tone,Noise,114,4,1,0.4449485000222921,1
9162,123,Larynx,Sham,Tone,Noise,115,1,1,0.423100499901921,1
9163,123,Larynx,Sham,Tone,Noise,116,2,0,0.722834800020792,1
9164,123,Larynx,Sham,Tone,Noise,117,3,0,0.674099000054412,1
9165,123,Larynx,Sham,Tone,Noise,118,1,0,0.592713900026865,1
9166,123,Larynx,Sham,Tone,Noise,119,3,0,1.28377580002416,1
9167,123,Larynx,Sham,Tone,Noise,120,1,1,0.6058401999762281,1
9168,123,Larynx,Sham,Tone,Noise,121,3,1,0.582578300032765,1
9169,123,Larynx,Sham,Tone,Noise,122,2,0,0.735402400023304,1
9170,123,Larynx,Sham,Tone,Noise,123,4,1,0.991035100072622,1
9171,123,Larynx,Sham,Tone,Noise,124,4,1,0.644009899930097,1
9172,123,Larynx,Sham,Tone,Noise,125,3,0,0.788811199949123,1
9173,123,Larynx,Sham,Tone,Noise,126,3,1,1.13433439994697,1
9174,123,Larynx,Sham,Tone,Noise,127,2,1,0.857455600053072,1
9175,123,Larynx,Sham,Tone,Noise,128,4,1,1.02327739994507,1
9176,123,Larynx,Sham,Tone,Noise,129,5,1,1.08631160005461,1
9177,123,Larynx,Sham,Tone,Noise,130,2,0,0.8083162000402808,1
9178,123,Larynx,Sham,Tone,Noise,131,1,0,0.7988149999873709,1
9179,123,Larynx,Sham,Tone,Noise,132,2,1,1.0899779000319498,1
9180,123,Larynx,Sham,Tone,Noise,133,5,1,0.8818035000003871,1
9181,123,Larynx,Sham,Tone,Noise,134,3,0,0.5525511000305411,1
9182,123,Larynx,Sham,Tone,Noise,135,3,0,0.584934400045313,1
9183,123,Larynx,Sham,Tone,Noise,136,3,0,0.4527720999903979,1
9184,123,Larynx,Sham,Tone,Noise,137,2,0,0.446504499996081,1
9185,123,Larynx,Sham,Tone,Noise,138,3,0,0.714068000088446,1
9186,123,Larynx,Sham,Tone,Noise,139,4,1,0.422781799919903,1
9187,123,Larynx,Sham,Tone,Noise,140,3,1,0.44195100001525106,1
9188,123,Larynx,Sham,Tone,Noise,141,4,1,0.386219599982724,1
9189,123,Larynx,Sham,Tone,Noise,142,1,0,0.68636020005215,1
9190,123,Larynx,Sham,Tone,Noise,143,5,1,0.523700600024313,1
9191,123,Larynx,Sham,Tone,Noise,144,2,0,0.6900353999808431,1
9192,123,Larynx,Sham,Tone,Noise,145,3,1,0.421502799959853,1
9193,123,Larynx,Sham,Tone,Noise,146,4,1,0.585607299930416,1
9194,123,Larynx,Sham,Tone,Noise,147,1,1,0.42210299998987505,1
9195,123,Larynx,Sham,Tone,Noise,148,1,1,0.8000739000272009,1
9196,123,Larynx,Sham,Tone,Noise,149,2,0,0.921074600075372,1
9197,123,Larynx,Sham,Tone,Noise,150,5,1,0.585109799983911,1
9198,123,Larynx,Sham,Tone,Noise,151,5,1,0.43919259996619103,1
9199,123,Larynx,Sham,Tone,Noise,152,5,1,0.39200049999635705,1
9200,123,Larynx,Sham,Tone,Noise,153,4,1,0.468368400004692,1
9201,123,Larynx,Sham,Tone,Noise,154,3,0,0.6833885000087321,1
9202,123,Larynx,Sham,Tone,Noise,155,2,0,0.57703909999691,1
9203,123,Larynx,Sham,Tone,Noise,156,4,1,0.5101086000213401,1
10296,139,Larynx,Left cTBS,Tone,Noise,1,3,0,1.07207450002898,1
10297,139,Larynx,Left cTBS,Tone,Noise,2,2,0,0.910942700051237,1
10298,139,Larynx,Left cTBS,Tone,Noise,3,3,1,0.658775299962144,1
10299,139,Larynx,Left cTBS,Tone,Noise,4,5,0,0.8521754000103101,1
10300,139,Larynx,Left cTBS,Tone,Noise,5,5,0,0.837008300004527,1
10301,139,Larynx,Left cTBS,Tone,Noise,6,3,1,0.647028700041119,1
10302,139,Larynx,Left cTBS,Tone,Noise,7,1,0,0.719926699995995,1
10303,139,Larynx,Left cTBS,Tone,Noise,8,3,1,0.580130900023505,1
10304,139,Larynx,Left cTBS,Tone,Noise,9,3,1,0.6450350999948571,1
10305,139,Larynx,Left cTBS,Tone,Noise,10,4,1,0.7908226000145079,1
10306,139,Larynx,Left cTBS,Tone,Noise,11,3,0,0.899462199944537,1
10307,139,Larynx,Left cTBS,Tone,Noise,12,1,1,0.690000500006136,1
10308,139,Larynx,Left cTBS,Tone,Noise,13,5,1,0.7156765999970959,1
10309,139,Larynx,Left cTBS,Tone,Noise,14,4,0,0.6666673999861811,1
10310,139,Larynx,Left cTBS,Tone,Noise,15,1,0,0.845864700037055,1
10311,139,Larynx,Left cTBS,Tone,Noise,16,5,1,0.7481008000322621,1
10312,139,Larynx,Left cTBS,Tone,Noise,17,2,1,0.59169380000094,1
10313,139,Larynx,Left cTBS,Tone,Noise,18,4,0,0.831741900008637,1
10314,139,Larynx,Left cTBS,Tone,Noise,19,2,0,0.8050635999534279,1
10315,139,Larynx,Left cTBS,Tone,Noise,20,2,0,0.9899572999565859,1
10316,139,Larynx,Left cTBS,Tone,Noise,21,1,0,1.08856140001444,1
10317,139,Larynx,Left cTBS,Tone,Noise,22,2,1,0.872317100001965,1
10318,139,Larynx,Left cTBS,Tone,Noise,23,3,1,0.663808500044979,1
10319,139,Larynx,Left cTBS,Tone,Noise,24,2,0,0.819849300023634,1
10320,139,Larynx,Left cTBS,Tone,Noise,25,4,1,0.963102700014133,1
10321,139,Larynx,Left cTBS,Tone,Noise,26,2,0,1.02005580003606,1
10322,139,Larynx,Left cTBS,Tone,Noise,27,4,1,0.6593204999808221,1
10323,139,Larynx,Left cTBS,Tone,Noise,28,3,1,0.7703217999660409,1
10324,139,Larynx,Left cTBS,Tone,Noise,29,5,1,0.9143139999941919,1
10325,139,Larynx,Left cTBS,Tone,Noise,30,3,0,0.6891404999769289,1
10326,139,Larynx,Left cTBS,Tone,Noise,31,4,0,0.742302200000267,1
10327,139,Larynx,Left cTBS,Tone,Noise,32,2,0,1.05561589996796,1
10328,139,Larynx,Left cTBS,Tone,Noise,33,3,0,0.8846048000268639,1
10329,139,Larynx,Left cTBS,Tone,Noise,34,4,1,0.741204399964772,1
10330,139,Larynx,Left cTBS,Tone,Noise,35,1,0,0.991350599972066,1
10331,139,Larynx,Left cTBS,Tone,Noise,36,4,1,1.1555032999603998,1
10332,139,Larynx,Left cTBS,Tone,Noise,37,3,0,0.934036899998318,1
10333,139,Larynx,Left cTBS,Tone,Noise,38,5,1,0.740630799962673,1
10334,139,Larynx,Left cTBS,Tone,Noise,39,1,0,0.8195073999813759,1
10335,139,Larynx,Left cTBS,Tone,Noise,40,4,1,0.733042200037744,1
10336,139,Larynx,Left cTBS,Tone,Noise,41,3,0,0.7584322999464351,1
10337,139,Larynx,Left cTBS,Tone,Noise,42,1,0,1.04850390000502,1
10338,139,Larynx,Left cTBS,Tone,Noise,43,1,0,1.23139649996301,1
10339,139,Larynx,Left cTBS,Tone,Noise,44,3,1,0.830690699978732,1
10340,139,Larynx,Left cTBS,Tone,Noise,45,1,0,0.869882199971471,1
10341,139,Larynx,Left cTBS,Tone,Noise,46,5,1,0.6393909000325949,1
10342,139,Larynx,Left cTBS,Tone,Noise,47,4,1,0.78256700001657,1
10343,139,Larynx,Left cTBS,Tone,Noise,48,4,1,1.08553059998667,1
10344,139,Larynx,Left cTBS,Tone,Noise,49,2,0,0.6489313999773,1
10345,139,Larynx,Left cTBS,Tone,Noise,50,2,0,0.8120520000229591,1
10346,139,Larynx,Left cTBS,Tone,Noise,51,2,1,0.77022720000241,1
10347,139,Larynx,Left cTBS,Tone,Noise,52,3,1,0.823544499988202,1
10348,139,Larynx,Left cTBS,Tone,Noise,53,3,1,0.8119444000185471,1
10349,139,Larynx,Left cTBS,Tone,Noise,54,4,1,0.865549299982376,1
10350,139,Larynx,Left cTBS,Tone,Noise,55,3,1,1.10360640002182,1
10351,139,Larynx,Left cTBS,Tone,Noise,56,4,0,0.7857371999998578,1
10352,139,Larynx,Left cTBS,Tone,Noise,57,5,0,0.7847765000187791,1
10353,139,Larynx,Left cTBS,Tone,Noise,58,2,1,0.9159202000009828,1
10354,139,Larynx,Left cTBS,Tone,Noise,59,5,1,0.856891200004611,1
10355,139,Larynx,Left cTBS,Tone,Noise,60,3,0,0.991266000026371,1
10356,139,Larynx,Left cTBS,Tone,Noise,61,5,0,0.7989630000083711,1
10357,139,Larynx,Left cTBS,Tone,Noise,62,3,1,0.7676806999952529,1
10358,139,Larynx,Left cTBS,Tone,Noise,63,2,1,0.715312300017104,1
10359,139,Larynx,Left cTBS,Tone,Noise,64,3,1,0.893136699975003,1
10360,139,Larynx,Left cTBS,Tone,Noise,65,1,0,0.960709500010125,1
10361,139,Larynx,Left cTBS,Tone,Noise,66,4,1,0.7479393999674359,1
10362,139,Larynx,Left cTBS,Tone,Noise,67,2,0,0.8020302000222729,1
10363,139,Larynx,Left cTBS,Tone,Noise,68,4,0,0.9371006999863308,1
10364,139,Larynx,Left cTBS,Tone,Noise,69,2,1,0.906977700011339,1
10365,139,Larynx,Left cTBS,Tone,Noise,70,1,1,0.832728400011547,1
10366,139,Larynx,Left cTBS,Tone,Noise,71,3,0,1.01915519998875,1
10367,139,Larynx,Left cTBS,Tone,Noise,72,4,1,0.761905400024261,1
10368,139,Larynx,Left cTBS,Tone,Noise,73,3,1,0.8181080000358629,1
10369,139,Larynx,Left cTBS,Tone,Noise,74,2,0,0.8013210999779399,1
10370,139,Larynx,Left cTBS,Tone,Noise,75,3,1,0.781585499993525,1
10371,139,Larynx,Left cTBS,Tone,Noise,76,5,1,0.9506354000186551,1
10372,139,Larynx,Left cTBS,Tone,Noise,77,1,0,0.9624066000105809,1
10373,139,Larynx,Left cTBS,Tone,Noise,78,5,1,0.691040400008205,1
10374,139,Larynx,Left cTBS,Tone,Noise,79,5,0,1.43522210000083,1
10375,139,Larynx,Left cTBS,Tone,Noise,80,2,0,1.0236375000095,1
10376,139,Larynx,Left cTBS,Tone,Noise,81,4,1,0.7546318000531759,1
10377,139,Larynx,Left cTBS,Tone,Noise,82,2,0,0.7445249999873341,1
10378,139,Larynx,Left cTBS,Tone,Noise,83,1,0,0.7907557000289671,1
10379,139,Larynx,Left cTBS,Tone,Noise,84,3,1,0.7636254000244659,1
10380,139,Larynx,Left cTBS,Tone,Noise,85,3,0,0.8375723999924959,1
10381,139,Larynx,Left cTBS,Tone,Noise,86,2,1,0.833914600021672,1
10382,139,Larynx,Left cTBS,Tone,Noise,87,2,0,0.836605999968015,1
10383,139,Larynx,Left cTBS,Tone,Noise,88,1,0,0.7331135999993421,1
10384,139,Larynx,Left cTBS,Tone,Noise,89,3,1,0.7844799000304191,1
10385,139,Larynx,Left cTBS,Tone,Noise,90,4,0,0.6989767999621109,1
10386,139,Larynx,Left cTBS,Tone,Noise,91,3,0,0.854200700006913,1
10387,139,Larynx,Left cTBS,Tone,Noise,92,5,1,0.7935964000062091,1
10388,139,Larynx,Left cTBS,Tone,Noise,93,1,0,0.9979520000051708,1
10389,139,Larynx,Left cTBS,Tone,Noise,94,4,1,1.66270699998131,1
10390,139,Larynx,Left cTBS,Tone,Noise,95,5,1,0.8965021999902091,1
10391,139,Larynx,Left cTBS,Tone,Noise,96,3,0,0.960236300015822,1
10392,139,Larynx,Left cTBS,Tone,Noise,97,2,0,1.09192199999234,1
10393,139,Larynx,Left cTBS,Tone,Noise,98,1,1,1.19200819998514,1
10394,139,Larynx,Left cTBS,Tone,Noise,99,2,0,0.875979500007816,1
10395,139,Larynx,Left cTBS,Tone,Noise,100,3,1,1.0067032999941101,1
10396,139,Larynx,Left cTBS,Tone,Noise,101,4,1,1.26415620004991,1
10397,139,Larynx,Left cTBS,Tone,Noise,102,3,0,0.993315499974415,1
10398,139,Larynx,Left cTBS,Tone,Noise,103,5,1,0.792410299996845,1
10399,139,Larynx,Left cTBS,Tone,Noise,104,4,0,0.9127225000411271,1
10400,139,Larynx,Left cTBS,Tone,Noise,105,1,0,0.977041599981021,1
10401,139,Larynx,Left cTBS,Tone,Noise,106,2,0,1.0864571999991302,1
10402,139,Larynx,Left cTBS,Tone,Noise,107,3,1,0.890950999979395,1
10403,139,Larynx,Left cTBS,Tone,Noise,108,5,0,0.835547900001984,1
10404,139,Larynx,Left cTBS,Tone,Noise,109,5,1,0.74725600000238,1
10405,139,Larynx,Left cTBS,Tone,Noise,110,4,0,0.8912830000044781,1
10406,139,Larynx,Left cTBS,Tone,Noise,111,4,1,1.24502210004721,1
10407,139,Larynx,Left cTBS,Tone,Noise,112,4,0,1.0705046000075502,1
10408,139,Larynx,Left cTBS,Tone,Noise,113,3,0,0.9597989000030792,1
10409,139,Larynx,Left cTBS,Tone,Noise,114,2,1,1.10389089997625,1
10410,139,Larynx,Left cTBS,Tone,Noise,115,1,0,0.756661899969913,1
10411,139,Larynx,Left cTBS,Tone,Noise,116,3,0,1.204740999965,1
10412,139,Larynx,Left cTBS,Tone,Noise,117,3,1,1.14119120000396,1
10413,139,Larynx,Left cTBS,Tone,Noise,118,5,0,0.963871299987659,1
10414,139,Larynx,Left cTBS,Tone,Noise,119,1,0,0.9833391000283879,1
10415,139,Larynx,Left cTBS,Tone,Noise,120,2,1,1.4033343999763,1
10416,139,Larynx,Left cTBS,Tone,Noise,121,1,0,1.1195213999599198,1
10417,139,Larynx,Left cTBS,Tone,Noise,122,3,0,1.25763109995751,1
10418,139,Larynx,Left cTBS,Tone,Noise,123,2,0,0.815770100045484,1
10419,139,Larynx,Left cTBS,Tone,Noise,124,2,1,1.0112782999640302,1
10420,139,Larynx,Left cTBS,Tone,Noise,125,3,1,1.14678100001765,1
10421,139,Larynx,Left cTBS,Tone,Noise,126,5,1,1.03526139998576,1
10422,139,Larynx,Left cTBS,Tone,Noise,127,3,0,1.2610871999640902,1
10423,139,Larynx,Left cTBS,Tone,Noise,128,3,0,1.07812640001066,1
10424,139,Larynx,Left cTBS,Tone,Noise,129,3,0,0.714573000033852,1
10425,139,Larynx,Left cTBS,Tone,Noise,130,2,0,1.10498759994516,1
10426,139,Larynx,Left cTBS,Tone,Noise,131,4,0,1.0266914999810999,1
10427,139,Larynx,Left cTBS,Tone,Noise,132,4,1,1.70547079999233,1
10428,139,Larynx,Left cTBS,Tone,Noise,133,3,1,1.2257864000275702,1
10429,139,Larynx,Left cTBS,Tone,Noise,134,5,0,1.4749989999691,1
10430,139,Larynx,Left cTBS,Tone,Noise,135,3,0,0.870040700014215,1
10431,139,Larynx,Left cTBS,Tone,Noise,136,4,0,0.9724413000512869,1
10432,139,Larynx,Left cTBS,Tone,Noise,137,4,0,1.1426818000036298,1
10433,139,Larynx,Left cTBS,Tone,Noise,138,4,0,1.86617340001976,1
10434,139,Larynx,Left cTBS,Tone,Noise,139,3,0,1.7547395000001398,1
10435,139,Larynx,Left cTBS,Tone,Noise,140,3,1,1.24717170000076,1
10436,139,Larynx,Left cTBS,Tone,Noise,141,4,0,1.07887379999738,1
10437,139,Larynx,Left cTBS,Tone,Noise,142,5,1,0.6836512999725529,1
10438,139,Larynx,Left cTBS,Tone,Noise,143,2,0,0.686005299969111,1
10439,139,Larynx,Left cTBS,Tone,Noise,144,1,0,0.762592800019775,1
10440,139,Larynx,Left cTBS,Tone,Noise,145,1,1,1.20531659998233,1
10441,139,Larynx,Left cTBS,Tone,Noise,146,3,0,0.902373899996746,1
10442,139,Larynx,Left cTBS,Tone,Noise,147,2,0,1.0738110000384,1
10443,139,Larynx,Left cTBS,Tone,Noise,148,2,0,0.913205299992114,1
10444,139,Larynx,Left cTBS,Tone,Noise,149,1,0,0.788427499996033,1
10445,139,Larynx,Left cTBS,Tone,Noise,150,5,1,0.879881000029854,1
10446,139,Larynx,Left cTBS,Tone,Noise,151,5,0,1.0260936000268,1
10447,139,Larynx,Left cTBS,Tone,Noise,152,4,1,1.20888769999146,1
10448,139,Larynx,Left cTBS,Tone,Noise,153,2,0,0.6788719000178389,1
10449,139,Larynx,Left cTBS,Tone,Noise,154,3,1,1.2013746000011498,1
10450,139,Larynx,Left cTBS,Tone,Noise,155,4,1,0.8895348999649291,1
10451,139,Larynx,Left cTBS,Tone,Noise,156,1,0,0.8941896000178531,1
12168,139,Larynx,Sham,Tone,Noise,1,3,0,0.810688900004607,1
12169,139,Larynx,Sham,Tone,Noise,2,4,1,0.718038500002876,1
12170,139,Larynx,Sham,Tone,Noise,3,4,1,0.909734900000331,1
12171,139,Larynx,Sham,Tone,Noise,4,5,0,1.04330669999763,1
12172,139,Larynx,Sham,Tone,Noise,5,4,0,0.8514980000036301,1
12173,139,Larynx,Sham,Tone,Noise,6,4,1,1.41907619999984,1
12174,139,Larynx,Sham,Tone,Noise,7,5,1,1.5482886000027098,1
12175,139,Larynx,Sham,Tone,Noise,8,5,0,0.9204045000005859,1
12176,139,Larynx,Sham,Tone,Noise,9,1,0,0.7910610999970229,1
12177,139,Larynx,Sham,Tone,Noise,10,3,0,1.01730810000299,1
12178,139,Larynx,Sham,Tone,Noise,11,5,1,0.796700700004294,1
12179,139,Larynx,Sham,Tone,Noise,12,2,0,0.857862800003204,1
12180,139,Larynx,Sham,Tone,Noise,13,3,0,1.0595945999957601,1
12181,139,Larynx,Sham,Tone,Noise,14,1,0,0.8723399000009521,1
12182,139,Larynx,Sham,Tone,Noise,15,1,1,1.06623699999909,1
12183,139,Larynx,Sham,Tone,Noise,16,2,0,0.73965550000139,1
12184,139,Larynx,Sham,Tone,Noise,17,3,1,1.0262691000025401,1
12185,139,Larynx,Sham,Tone,Noise,18,1,0,0.728674900004989,1
12186,139,Larynx,Sham,Tone,Noise,19,3,0,0.957001999995555,1
12187,139,Larynx,Sham,Tone,Noise,20,3,1,0.757562200000393,1
12188,139,Larynx,Sham,Tone,Noise,21,3,1,0.7450222000043141,1
12189,139,Larynx,Sham,Tone,Noise,22,4,0,0.835135699999228,1
12190,139,Larynx,Sham,Tone,Noise,23,4,1,0.942692900003749,1
12191,139,Larynx,Sham,Tone,Noise,24,5,0,1.08394480000425,1
12192,139,Larynx,Sham,Tone,Noise,25,3,0,0.810235299999476,1
12193,139,Larynx,Sham,Tone,Noise,26,3,1,0.7293922999961071,1
12194,139,Larynx,Sham,Tone,Noise,27,3,0,0.7133040999979129,1
12195,139,Larynx,Sham,Tone,Noise,28,1,0,0.88699639999686,1
12196,139,Larynx,Sham,Tone,Noise,29,4,1,0.825037700000394,1
12197,139,Larynx,Sham,Tone,Noise,30,2,0,0.8951537999964779,1
12198,139,Larynx,Sham,Tone,Noise,31,2,0,1.18174259999796,1
12199,139,Larynx,Sham,Tone,Noise,32,3,0,1.0989472999935999,1
12200,139,Larynx,Sham,Tone,Noise,33,4,1,0.7725662000011649,1
12201,139,Larynx,Sham,Tone,Noise,34,5,1,0.751824099999794,1
12202,139,Larynx,Sham,Tone,Noise,35,2,0,0.783090099997935,1
12203,139,Larynx,Sham,Tone,Noise,36,2,0,0.7897123000002471,1
12204,139,Larynx,Sham,Tone,Noise,37,2,0,1.0931130000026301,1
12205,139,Larynx,Sham,Tone,Noise,38,1,0,0.905059500000789,1
12206,139,Larynx,Sham,Tone,Noise,39,2,1,0.639854799999739,1
12207,139,Larynx,Sham,Tone,Noise,40,4,1,0.863886599996476,1
12208,139,Larynx,Sham,Tone,Noise,41,3,0,1.0702281000049,1
12209,139,Larynx,Sham,Tone,Noise,42,4,1,0.9901207000002609,1
12210,139,Larynx,Sham,Tone,Noise,43,1,1,0.9285770999995291,1
12211,139,Larynx,Sham,Tone,Noise,44,1,0,0.8552994999990908,1
12212,139,Larynx,Sham,Tone,Noise,45,2,1,1.057624699999,1
12213,139,Larynx,Sham,Tone,Noise,46,4,0,0.9973462999987529,1
12214,139,Larynx,Sham,Tone,Noise,47,4,0,1.00730789999943,1
12215,139,Larynx,Sham,Tone,Noise,48,5,1,1.07650950000243,1
12216,139,Larynx,Sham,Tone,Noise,49,4,1,0.9472391999952379,1
12217,139,Larynx,Sham,Tone,Noise,50,2,0,0.638466500000504,1
12218,139,Larynx,Sham,Tone,Noise,51,1,0,0.583091499996954,1
12219,139,Larynx,Sham,Tone,Noise,52,3,0,0.8790100999976859,1
12220,139,Larynx,Sham,Tone,Noise,53,5,1,1.01021760000003,1
12221,139,Larynx,Sham,Tone,Noise,54,2,0,0.908399799998733,1
12222,139,Larynx,Sham,Tone,Noise,55,2,0,0.7808270000023191,1
12223,139,Larynx,Sham,Tone,Noise,56,3,0,1.13168240000232,1
12224,139,Larynx,Sham,Tone,Noise,57,5,1,0.9853599999987641,1
12225,139,Larynx,Sham,Tone,Noise,58,3,0,0.7930651999995459,1
12226,139,Larynx,Sham,Tone,Noise,59,3,0,0.949514500003716,1
12227,139,Larynx,Sham,Tone,Noise,60,2,0,0.859469900002296,1
12228,139,Larynx,Sham,Tone,Noise,61,3,1,1.14110960000107,1
12229,139,Larynx,Sham,Tone,Noise,62,4,0,1.6055388000022501,1
12230,139,Larynx,Sham,Tone,Noise,63,3,0,0.8835221999979691,1
12231,139,Larynx,Sham,Tone,Noise,64,5,1,0.8448846999963281,1
12232,139,Larynx,Sham,Tone,Noise,65,3,0,0.7849260000002691,1
12233,139,Larynx,Sham,Tone,Noise,66,3,1,1.21015530000295,1
12234,139,Larynx,Sham,Tone,Noise,67,4,0,0.8225803999957859,1
12235,139,Larynx,Sham,Tone,Noise,68,1,0,0.6741909999982449,1
12236,139,Larynx,Sham,Tone,Noise,69,3,0,0.7287930000020421,1
12237,139,Larynx,Sham,Tone,Noise,70,5,1,0.697332100004132,1
12238,139,Larynx,Sham,Tone,Noise,71,3,1,0.903125099997851,1
12239,139,Larynx,Sham,Tone,Noise,72,4,0,0.835960299998987,1
12240,139,Larynx,Sham,Tone,Noise,73,5,0,1.1991995999996998,1
12241,139,Larynx,Sham,Tone,Noise,74,2,0,0.748890599999868,1
12242,139,Larynx,Sham,Tone,Noise,75,1,0,0.69276600000012,1
12243,139,Larynx,Sham,Tone,Noise,76,2,1,1.02053680000245,1
12244,139,Larynx,Sham,Tone,Noise,77,1,0,1.25028490000113,1
12245,139,Larynx,Sham,Tone,Noise,78,2,0,0.724749100001645,1
12246,139,Larynx,Sham,Tone,Noise,79,5,1,0.744789600001241,1
12247,139,Larynx,Sham,Tone,Noise,80,2,0,0.717242899998382,1
12248,139,Larynx,Sham,Tone,Noise,81,2,0,0.7849439000056009,1
12249,139,Larynx,Sham,Tone,Noise,82,2,0,0.7460343999991891,1
12250,139,Larynx,Sham,Tone,Noise,83,4,1,0.975161700000172,1
12251,139,Larynx,Sham,Tone,Noise,84,2,0,0.821195599994098,1
12252,139,Larynx,Sham,Tone,Noise,85,2,0,0.6916142999980369,1
12253,139,Larynx,Sham,Tone,Noise,86,1,0,0.773533400002634,1
12254,139,Larynx,Sham,Tone,Noise,87,5,1,0.8491817000031009,1
12255,139,Larynx,Sham,Tone,Noise,88,5,0,1.00944270000036,1
12256,139,Larynx,Sham,Tone,Noise,89,3,0,0.660029899998335,1
12257,139,Larynx,Sham,Tone,Noise,90,3,1,0.847778600000311,1
12258,139,Larynx,Sham,Tone,Noise,91,3,1,1.2039598999981498,1
12259,139,Larynx,Sham,Tone,Noise,92,4,0,0.779640200002177,1
12260,139,Larynx,Sham,Tone,Noise,93,4,0,0.7495955999984292,1
12261,139,Larynx,Sham,Tone,Noise,94,5,1,1.18319270000211,1
12262,139,Larynx,Sham,Tone,Noise,95,4,0,0.8077592999979971,1
12263,139,Larynx,Sham,Tone,Noise,96,5,1,1.40691009999864,1
12264,139,Larynx,Sham,Tone,Noise,97,1,0,0.7663637999939971,1
12265,139,Larynx,Sham,Tone,Noise,98,3,0,0.7407087000028699,1
12266,139,Larynx,Sham,Tone,Noise,99,1,0,0.619490999997652,1
12267,139,Larynx,Sham,Tone,Noise,100,3,1,0.8080300000001441,1
12268,139,Larynx,Sham,Tone,Noise,101,1,0,0.7505212999967629,1
12269,139,Larynx,Sham,Tone,Noise,102,4,1,0.8550509999986391,1
12270,139,Larynx,Sham,Tone,Noise,103,3,0,0.887167799999588,1
12271,139,Larynx,Sham,Tone,Noise,104,4,0,0.7234344000025891,1
12272,139,Larynx,Sham,Tone,Noise,105,2,1,0.8398143000013081,1
12273,139,Larynx,Sham,Tone,Noise,106,3,1,0.8514958000014301,1
12274,139,Larynx,Sham,Tone,Noise,107,3,0,0.936057099999744,1
12275,139,Larynx,Sham,Tone,Noise,108,5,1,0.7186510000028651,1
12276,139,Larynx,Sham,Tone,Noise,109,3,0,0.934876999999688,1
12277,139,Larynx,Sham,Tone,Noise,110,2,0,0.801466299999447,1
12278,139,Larynx,Sham,Tone,Noise,111,1,0,0.891383000001952,1
12279,139,Larynx,Sham,Tone,Noise,112,4,1,0.882888599997386,1
12280,139,Larynx,Sham,Tone,Noise,113,3,1,1.1039086000018898,1
12281,139,Larynx,Sham,Tone,Noise,114,4,0,0.779413299998851,1
12282,139,Larynx,Sham,Tone,Noise,115,1,0,0.6990575000018001,1
12283,139,Larynx,Sham,Tone,Noise,116,2,0,0.774821899998642,1
12284,139,Larynx,Sham,Tone,Noise,117,3,1,0.908855599998788,1
12285,139,Larynx,Sham,Tone,Noise,118,1,0,1.0903041000056,1
12286,139,Larynx,Sham,Tone,Noise,119,3,1,0.8362828000026641,1
12287,139,Larynx,Sham,Tone,Noise,120,1,0,0.742896399999154,1
12288,139,Larynx,Sham,Tone,Noise,121,3,0,1.28169630000048,1
12289,139,Larynx,Sham,Tone,Noise,122,2,0,1.0184633999961101,1
12290,139,Larynx,Sham,Tone,Noise,123,4,1,0.931550099994638,1
12291,139,Larynx,Sham,Tone,Noise,124,4,1,1.2556497000041398,1
12292,139,Larynx,Sham,Tone,Noise,125,3,0,1.2206468000004,1
12293,139,Larynx,Sham,Tone,Noise,126,3,1,1.06802269999753,1
12294,139,Larynx,Sham,Tone,Noise,127,2,0,0.857729099996504,1
12295,139,Larynx,Sham,Tone,Noise,128,4,0,1.0432154999943999,1
12296,139,Larynx,Sham,Tone,Noise,129,5,1,0.895819600002142,1
12297,139,Larynx,Sham,Tone,Noise,130,2,0,0.8414753999968531,1
12298,139,Larynx,Sham,Tone,Noise,131,1,0,0.9380604000034509,1
12299,139,Larynx,Sham,Tone,Noise,132,2,1,0.889088400006585,1
12300,139,Larynx,Sham,Tone,Noise,133,5,1,0.6716091999987839,1
12301,139,Larynx,Sham,Tone,Noise,134,3,0,0.9116228999992021,1
12302,139,Larynx,Sham,Tone,Noise,135,3,1,0.9085844000001091,1
12303,139,Larynx,Sham,Tone,Noise,136,3,1,1.03023659999599,1
12304,139,Larynx,Sham,Tone,Noise,137,2,0,0.7805515000000011,1
12305,139,Larynx,Sham,Tone,Noise,138,3,0,0.679277700000966,1
12306,139,Larynx,Sham,Tone,Noise,139,4,0,1.0170422999945,1
12307,139,Larynx,Sham,Tone,Noise,140,3,1,0.714733399996476,1
12308,139,Larynx,Sham,Tone,Noise,141,4,0,0.7907124999983349,1
12309,139,Larynx,Sham,Tone,Noise,142,1,0,0.647621599993727,1
12310,139,Larynx,Sham,Tone,Noise,143,5,0,0.787602099997457,1
12311,139,Larynx,Sham,Tone,Noise,144,2,0,1.04560299999866,1
12312,139,Larynx,Sham,Tone,Noise,145,3,0,0.8809715999959742,1
12313,139,Larynx,Sham,Tone,Noise,146,4,0,1.04602180000074,1
12314,139,Larynx,Sham,Tone,Noise,147,1,0,0.9892378000004101,1
12315,139,Larynx,Sham,Tone,Noise,148,1,1,1.15018859999691,1
12316,139,Larynx,Sham,Tone,Noise,149,2,0,0.74352170000202,1
12317,139,Larynx,Sham,Tone,Noise,150,5,1,0.8351035000014241,1
12318,139,Larynx,Sham,Tone,Noise,151,5,0,1.05541059999814,1
12319,139,Larynx,Sham,Tone,Noise,152,5,1,1.00256680000166,1
12320,139,Larynx,Sham,Tone,Noise,153,4,0,1.16127649999544,1
12321,139,Larynx,Sham,Tone,Noise,154,3,0,1.5063815999965302,1
12322,139,Larynx,Sham,Tone,Noise,155,2,1,0.8254742999997691,1
12323,139,Larynx,Sham,Tone,Noise,156,4,0,1.2542466000013501,1
13416,142,Larynx,Left cTBS,Tone,Noise,1,1,0,1.02781999995932,1
13417,142,Larynx,Left cTBS,Tone,Noise,2,3,0,0.9355672999517991,1
13418,142,Larynx,Left cTBS,Tone,Noise,3,1,1,0.6626680999761451,1
13419,142,Larynx,Left cTBS,Tone,Noise,4,3,0,0.592544900020584,1
13420,142,Larynx,Left cTBS,Tone,Noise,5,2,1,0.597466800012626,1
13421,142,Larynx,Left cTBS,Tone,Noise,6,4,1,0.651125799980946,1
13422,142,Larynx,Left cTBS,Tone,Noise,7,4,0,0.524919099989347,1
13423,142,Larynx,Left cTBS,Tone,Noise,8,3,1,0.5107140999753029,1
13424,142,Larynx,Left cTBS,Tone,Noise,9,3,0,0.78715889994055,1
13425,142,Larynx,Left cTBS,Tone,Noise,10,2,0,0.52119840006344,1
13426,142,Larynx,Left cTBS,Tone,Noise,11,4,1,0.520496099954471,1
13427,142,Larynx,Left cTBS,Tone,Noise,12,5,1,0.679005199926905,1
13428,142,Larynx,Left cTBS,Tone,Noise,13,2,0,0.716388400061987,1
13429,142,Larynx,Left cTBS,Tone,Noise,14,1,0,0.83214230008889,1
13430,142,Larynx,Left cTBS,Tone,Noise,15,2,0,0.659049900015816,1
13431,142,Larynx,Left cTBS,Tone,Noise,16,5,1,0.453522399999201,1
13432,142,Larynx,Left cTBS,Tone,Noise,17,3,0,0.8075812000315641,1
13433,142,Larynx,Left cTBS,Tone,Noise,18,3,0,0.811868699965999,1
13434,142,Larynx,Left cTBS,Tone,Noise,19,3,0,0.677795200026594,1
13435,142,Larynx,Left cTBS,Tone,Noise,20,2,0,0.8348964999895542,1
13436,142,Larynx,Left cTBS,Tone,Noise,21,3,1,0.5645485999993979,1
13437,142,Larynx,Left cTBS,Tone,Noise,22,4,1,0.643763100029901,1
13438,142,Larynx,Left cTBS,Tone,Noise,23,3,0,0.579849699977785,1
13439,142,Larynx,Left cTBS,Tone,Noise,24,4,0,0.7520790999988091,1
13440,142,Larynx,Left cTBS,Tone,Noise,25,1,0,0.744518400053494,1
13441,142,Larynx,Left cTBS,Tone,Noise,26,5,1,0.7932310999603941,1
13442,142,Larynx,Left cTBS,Tone,Noise,27,2,0,0.579702500021085,1
13443,142,Larynx,Left cTBS,Tone,Noise,28,3,0,0.6243724999949339,1
13444,142,Larynx,Left cTBS,Tone,Noise,29,4,1,0.678069500019774,1
13445,142,Larynx,Left cTBS,Tone,Noise,30,1,0,0.7732919999398291,1
13446,142,Larynx,Left cTBS,Tone,Noise,31,1,0,0.631826200056821,1
13447,142,Larynx,Left cTBS,Tone,Noise,32,2,0,0.774697600048967,1
13448,142,Larynx,Left cTBS,Tone,Noise,33,5,1,0.47067899990361206,1
13449,142,Larynx,Left cTBS,Tone,Noise,34,5,1,0.5943313000025229,1
13450,142,Larynx,Left cTBS,Tone,Noise,35,5,1,0.7492953999899329,1
13451,142,Larynx,Left cTBS,Tone,Noise,36,4,1,0.772876099916175,1
13452,142,Larynx,Left cTBS,Tone,Noise,37,3,1,0.9513539999024939,1
13453,142,Larynx,Left cTBS,Tone,Noise,38,2,0,0.6892300000181422,1
13454,142,Larynx,Left cTBS,Tone,Noise,39,4,0,0.657367100007832,1
13455,142,Larynx,Left cTBS,Tone,Noise,40,1,0,0.964570099953562,1
13456,142,Larynx,Left cTBS,Tone,Noise,41,2,0,0.804646699922159,1
13457,142,Larynx,Left cTBS,Tone,Noise,42,3,0,0.8234666000353169,1
13458,142,Larynx,Left cTBS,Tone,Noise,43,2,0,0.6751370000420139,1
13459,142,Larynx,Left cTBS,Tone,Noise,44,4,1,0.5073216999880971,1
13460,142,Larynx,Left cTBS,Tone,Noise,45,3,1,0.648978800047189,1
13461,142,Larynx,Left cTBS,Tone,Noise,46,3,1,0.8006010999670251,1
13462,142,Larynx,Left cTBS,Tone,Noise,47,4,1,0.8684514000779019,1
13463,142,Larynx,Left cTBS,Tone,Noise,48,3,0,1.07291020010598,1
13464,142,Larynx,Left cTBS,Tone,Noise,49,4,1,0.8570332999806851,1
13465,142,Larynx,Left cTBS,Tone,Noise,50,4,1,1.16248990001623,1
13466,142,Larynx,Left cTBS,Tone,Noise,51,3,0,0.62610659992788,1
13467,142,Larynx,Left cTBS,Tone,Noise,52,3,0,0.778744700015523,1
13468,142,Larynx,Left cTBS,Tone,Noise,53,5,1,0.598003500024788,1
13469,142,Larynx,Left cTBS,Tone,Noise,54,5,1,0.8627479999559,1
13470,142,Larynx,Left cTBS,Tone,Noise,55,4,1,0.870023000054061,1
13471,142,Larynx,Left cTBS,Tone,Noise,56,1,0,0.7641820999560881,1
13472,142,Larynx,Left cTBS,Tone,Noise,57,4,1,0.939438799978234,1
13473,142,Larynx,Left cTBS,Tone,Noise,58,5,1,0.744181000045501,1
13474,142,Larynx,Left cTBS,Tone,Noise,59,5,1,0.689638299983926,1
13475,142,Larynx,Left cTBS,Tone,Noise,60,5,1,0.713744300068356,1
13476,142,Larynx,Left cTBS,Tone,Noise,61,4,1,0.7612574000377209,1
13477,142,Larynx,Left cTBS,Tone,Noise,62,2,0,0.729287100024521,1
13478,142,Larynx,Left cTBS,Tone,Noise,63,5,1,0.713726400048472,1
13479,142,Larynx,Left cTBS,Tone,Noise,64,2,0,0.904577999957837,1
13480,142,Larynx,Left cTBS,Tone,Noise,65,3,0,0.6099738999037071,1
13481,142,Larynx,Left cTBS,Tone,Noise,66,2,0,0.800659299944527,1
13482,142,Larynx,Left cTBS,Tone,Noise,67,2,0,0.644584100111388,1
13483,142,Larynx,Left cTBS,Tone,Noise,68,3,0,0.6585981999523941,1
13484,142,Larynx,Left cTBS,Tone,Noise,69,3,1,0.6589643000625071,1
13485,142,Larynx,Left cTBS,Tone,Noise,70,2,0,0.728930299985223,1
13486,142,Larynx,Left cTBS,Tone,Noise,71,1,0,0.5863703000359239,1
13487,142,Larynx,Left cTBS,Tone,Noise,72,1,0,0.5487888000207021,1
13488,142,Larynx,Left cTBS,Tone,Noise,73,1,0,0.656119300052524,1
13489,142,Larynx,Left cTBS,Tone,Noise,74,3,1,0.7449212000938129,1
13490,142,Larynx,Left cTBS,Tone,Noise,75,4,1,0.793530100025237,1
13491,142,Larynx,Left cTBS,Tone,Noise,76,1,0,0.62507149996236,1
13492,142,Larynx,Left cTBS,Tone,Noise,77,3,0,0.6237127999775111,1
13493,142,Larynx,Left cTBS,Tone,Noise,78,2,0,0.498961200006306,1
13494,142,Larynx,Left cTBS,Tone,Noise,79,5,1,0.490501099964604,1
13495,142,Larynx,Left cTBS,Tone,Noise,80,3,0,0.7108058000449091,1
13496,142,Larynx,Left cTBS,Tone,Noise,81,5,1,0.7604654999449849,1
13497,142,Larynx,Left cTBS,Tone,Noise,82,2,0,0.6569591999286789,1
13498,142,Larynx,Left cTBS,Tone,Noise,83,3,0,0.748169100028463,1
13499,142,Larynx,Left cTBS,Tone,Noise,84,4,1,0.761085300007835,1
13500,142,Larynx,Left cTBS,Tone,Noise,85,1,1,0.892689400003292,1
13501,142,Larynx,Left cTBS,Tone,Noise,86,4,1,0.93172760005109,1
13502,142,Larynx,Left cTBS,Tone,Noise,87,2,0,0.635805899975821,1
13503,142,Larynx,Left cTBS,Tone,Noise,88,2,0,0.5173155999509621,1
13504,142,Larynx,Left cTBS,Tone,Noise,89,1,0,0.776433799997903,1
13505,142,Larynx,Left cTBS,Tone,Noise,90,4,1,0.608650199952535,1
13506,142,Larynx,Left cTBS,Tone,Noise,91,2,0,0.983695599948987,1
13507,142,Larynx,Left cTBS,Tone,Noise,92,4,1,0.5255346000194551,1
13508,142,Larynx,Left cTBS,Tone,Noise,93,5,1,0.6711753000272441,1
13509,142,Larynx,Left cTBS,Tone,Noise,94,1,0,0.6539008000399921,1
13510,142,Larynx,Left cTBS,Tone,Noise,95,3,0,0.722913900041021,1
13511,142,Larynx,Left cTBS,Tone,Noise,96,3,1,0.7114419999998058,1
13512,142,Larynx,Left cTBS,Tone,Noise,97,1,0,0.582370599964634,1
13513,142,Larynx,Left cTBS,Tone,Noise,98,4,1,0.5694316000444809,1
13514,142,Larynx,Left cTBS,Tone,Noise,99,3,1,0.6515981999691579,1
13515,142,Larynx,Left cTBS,Tone,Noise,100,1,0,0.556308900006115,1
13516,142,Larynx,Left cTBS,Tone,Noise,101,4,1,0.7339905000990258,1
13517,142,Larynx,Left cTBS,Tone,Noise,102,3,0,0.726314299972728,1
13518,142,Larynx,Left cTBS,Tone,Noise,103,3,0,0.7470427000662309,1
13519,142,Larynx,Left cTBS,Tone,Noise,104,3,0,0.6345331000629809,1
13520,142,Larynx,Left cTBS,Tone,Noise,105,5,1,0.581493000034243,1
13521,142,Larynx,Left cTBS,Tone,Noise,106,2,0,0.555237900000066,1
13522,142,Larynx,Left cTBS,Tone,Noise,107,5,1,0.7026074000168591,1
13523,142,Larynx,Left cTBS,Tone,Noise,108,3,1,0.806810599984601,1
13524,142,Larynx,Left cTBS,Tone,Noise,109,4,1,0.7679606999736279,1
13525,142,Larynx,Left cTBS,Tone,Noise,110,1,0,0.591274300008081,1
13526,142,Larynx,Left cTBS,Tone,Noise,111,3,0,0.5138567999238149,1
13527,142,Larynx,Left cTBS,Tone,Noise,112,5,1,0.7073250999674201,1
13528,142,Larynx,Left cTBS,Tone,Noise,113,4,1,0.61389189993497,1
13529,142,Larynx,Left cTBS,Tone,Noise,114,2,0,0.970524900010787,1
13530,142,Larynx,Left cTBS,Tone,Noise,115,2,0,0.591209699981846,1
13531,142,Larynx,Left cTBS,Tone,Noise,116,2,0,0.7461186000145971,1
13532,142,Larynx,Left cTBS,Tone,Noise,117,3,1,0.607231999980286,1
13533,142,Larynx,Left cTBS,Tone,Noise,118,1,0,0.7020668999757621,1
13534,142,Larynx,Left cTBS,Tone,Noise,119,3,0,0.5515428000362591,1
13535,142,Larynx,Left cTBS,Tone,Noise,120,4,1,0.718577800085768,1
13536,142,Larynx,Left cTBS,Tone,Noise,121,4,1,0.696314400061965,1
13537,142,Larynx,Left cTBS,Tone,Noise,122,2,0,0.6478778000455351,1
13538,142,Larynx,Left cTBS,Tone,Noise,123,4,1,0.894695999915712,1
13539,142,Larynx,Left cTBS,Tone,Noise,124,2,0,0.598688500002027,1
13540,142,Larynx,Left cTBS,Tone,Noise,125,4,0,0.507034899899736,1
13541,142,Larynx,Left cTBS,Tone,Noise,126,5,1,0.646259899949655,1
13542,142,Larynx,Left cTBS,Tone,Noise,127,4,1,0.733760899980552,1
13543,142,Larynx,Left cTBS,Tone,Noise,128,5,1,0.85940849990584,1
13544,142,Larynx,Left cTBS,Tone,Noise,129,3,0,0.7915229999925941,1
13545,142,Larynx,Left cTBS,Tone,Noise,130,3,0,0.547718700021505,1
13546,142,Larynx,Left cTBS,Tone,Noise,131,5,1,0.883235199959017,1
13547,142,Larynx,Left cTBS,Tone,Noise,132,3,0,0.669184400001541,1
13548,142,Larynx,Left cTBS,Tone,Noise,133,3,0,1.3209693999961,1
13549,142,Larynx,Left cTBS,Tone,Noise,134,1,0,0.698564499965869,1
13550,142,Larynx,Left cTBS,Tone,Noise,135,3,0,0.744703700067475,1
13551,142,Larynx,Left cTBS,Tone,Noise,136,2,0,0.7061498999828469,1
13552,142,Larynx,Left cTBS,Tone,Noise,137,4,1,0.563638200052083,1
13553,142,Larynx,Left cTBS,Tone,Noise,138,3,0,0.650667499983683,1
13554,142,Larynx,Left cTBS,Tone,Noise,139,4,1,0.7223650000523779,1
13555,142,Larynx,Left cTBS,Tone,Noise,140,3,1,0.9327730999793861,1
13556,142,Larynx,Left cTBS,Tone,Noise,141,1,0,0.844559299992397,1
13557,142,Larynx,Left cTBS,Tone,Noise,142,2,0,0.7048873999156059,1
13558,142,Larynx,Left cTBS,Tone,Noise,143,5,1,0.621978199924342,1
13559,142,Larynx,Left cTBS,Tone,Noise,144,3,1,0.776507399976254,1
13560,142,Larynx,Left cTBS,Tone,Noise,145,1,0,0.664985500043258,1
13561,142,Larynx,Left cTBS,Tone,Noise,146,2,0,0.7647507999790829,1
13562,142,Larynx,Left cTBS,Tone,Noise,147,2,0,0.625169000006281,1
13563,142,Larynx,Left cTBS,Tone,Noise,148,5,1,0.58435380004812,1
13564,142,Larynx,Left cTBS,Tone,Noise,149,1,0,0.705443399958313,1
13565,142,Larynx,Left cTBS,Tone,Noise,150,5,1,0.560317600029521,1
13566,142,Larynx,Left cTBS,Tone,Noise,151,2,0,0.9457480999408291,1
13567,142,Larynx,Left cTBS,Tone,Noise,152,3,1,0.791655500070192,1
13568,142,Larynx,Left cTBS,Tone,Noise,153,4,0,0.6812487000133841,1
13569,142,Larynx,Left cTBS,Tone,Noise,154,2,0,0.808044399949722,1
13570,142,Larynx,Left cTBS,Tone,Noise,155,1,0,0.983721300028265,1
13571,142,Larynx,Left cTBS,Tone,Noise,156,3,1,1.01066319993697,1
15288,142,Larynx,Sham,Tone,Noise,1,2,0,0.8485331000010771,1
15289,142,Larynx,Sham,Tone,Noise,2,3,0,0.8498532999983579,1
15290,142,Larynx,Sham,Tone,Noise,3,5,1,0.62902330000361,1
15291,142,Larynx,Sham,Tone,Noise,4,5,1,0.7811605000024431,1
15292,142,Larynx,Sham,Tone,Noise,5,2,0,0.8204712000006109,1
15293,142,Larynx,Sham,Tone,Noise,6,4,1,0.621602300001541,1
15294,142,Larynx,Sham,Tone,Noise,7,1,0,0.7109864000012751,1
15295,142,Larynx,Sham,Tone,Noise,8,2,1,0.606359800000064,1
15296,142,Larynx,Sham,Tone,Noise,9,3,0,0.64297230000011,1
15297,142,Larynx,Sham,Tone,Noise,10,3,1,0.5429867000020749,1
15298,142,Larynx,Sham,Tone,Noise,11,1,0,0.6598586000000071,1
15299,142,Larynx,Sham,Tone,Noise,12,4,1,0.753619200000685,1
15300,142,Larynx,Sham,Tone,Noise,13,3,1,0.46857939999972603,1
15301,142,Larynx,Sham,Tone,Noise,14,3,1,0.52624250000008,1
15302,142,Larynx,Sham,Tone,Noise,15,1,0,0.9996721999996229,1
15303,142,Larynx,Sham,Tone,Noise,16,2,1,0.791801999999734,1
15304,142,Larynx,Sham,Tone,Noise,17,3,1,0.9299192999969821,1
15305,142,Larynx,Sham,Tone,Noise,18,5,0,1.16293719999885,1
15306,142,Larynx,Sham,Tone,Noise,19,5,1,0.609384499999578,1
15307,142,Larynx,Sham,Tone,Noise,20,3,1,0.588406699996995,1
15308,142,Larynx,Sham,Tone,Noise,21,4,1,0.8717237999990181,1
15309,142,Larynx,Sham,Tone,Noise,22,1,0,0.5860655999968001,1
15310,142,Larynx,Sham,Tone,Noise,23,3,0,0.6916782000007521,1
15311,142,Larynx,Sham,Tone,Noise,24,5,1,0.609853000001749,1
15312,142,Larynx,Sham,Tone,Noise,25,2,0,0.725115299999743,1
15313,142,Larynx,Sham,Tone,Noise,26,3,0,0.6641728999966291,1
15314,142,Larynx,Sham,Tone,Noise,27,4,0,0.7225093999986709,1
15315,142,Larynx,Sham,Tone,Noise,28,2,1,0.693096700000751,1
15316,142,Larynx,Sham,Tone,Noise,29,4,0,0.7209609000019549,1
15317,142,Larynx,Sham,Tone,Noise,30,4,1,0.631969800000661,1
15318,142,Larynx,Sham,Tone,Noise,31,3,1,1.014349699999,1
15319,142,Larynx,Sham,Tone,Noise,32,4,0,0.5640628000001021,1
15320,142,Larynx,Sham,Tone,Noise,33,5,1,0.5881594999991651,1
15321,142,Larynx,Sham,Tone,Noise,34,1,0,0.6420109999999111,1
15322,142,Larynx,Sham,Tone,Noise,35,4,1,0.652017899999919,1
15323,142,Larynx,Sham,Tone,Noise,36,2,0,0.736863500002073,1
15324,142,Larynx,Sham,Tone,Noise,37,2,0,0.8121773000020771,1
15325,142,Larynx,Sham,Tone,Noise,38,3,0,0.660808499997074,1
15326,142,Larynx,Sham,Tone,Noise,39,1,1,0.550306799999817,1
15327,142,Larynx,Sham,Tone,Noise,40,3,0,1.10470400000122,1
15328,142,Larynx,Sham,Tone,Noise,41,3,0,0.636515199999849,1
15329,142,Larynx,Sham,Tone,Noise,42,5,1,0.49473659999784997,1
15330,142,Larynx,Sham,Tone,Noise,43,1,0,0.778463399998145,1
15331,142,Larynx,Sham,Tone,Noise,44,2,0,0.688589599998522,1
15332,142,Larynx,Sham,Tone,Noise,45,3,0,0.747033600000577,1
15333,142,Larynx,Sham,Tone,Noise,46,2,0,0.7884078999995842,1
15334,142,Larynx,Sham,Tone,Noise,47,2,1,0.6707413000003729,1
15335,142,Larynx,Sham,Tone,Noise,48,5,1,0.552561399999831,1
15336,142,Larynx,Sham,Tone,Noise,49,4,1,0.618821200001548,1
15337,142,Larynx,Sham,Tone,Noise,50,5,1,0.6670778999978211,1
15338,142,Larynx,Sham,Tone,Noise,51,1,0,0.48903669999708704,1
15339,142,Larynx,Sham,Tone,Noise,52,1,0,0.528193199999805,1
15340,142,Larynx,Sham,Tone,Noise,53,4,1,0.6649046999991701,1
15341,142,Larynx,Sham,Tone,Noise,54,5,1,0.854055399999197,1
15342,142,Larynx,Sham,Tone,Noise,55,2,0,0.561980499998754,1
15343,142,Larynx,Sham,Tone,Noise,56,4,1,0.51953809999759,1
15344,142,Larynx,Sham,Tone,Noise,57,4,1,0.6872788000000579,1
15345,142,Larynx,Sham,Tone,Noise,58,3,0,0.6032653000002031,1
15346,142,Larynx,Sham,Tone,Noise,59,3,0,0.968957500001125,1
15347,142,Larynx,Sham,Tone,Noise,60,2,1,0.542008599997644,1
15348,142,Larynx,Sham,Tone,Noise,61,1,0,0.675412000000506,1
15349,142,Larynx,Sham,Tone,Noise,62,4,1,0.7341851999990471,1
15350,142,Larynx,Sham,Tone,Noise,63,3,0,0.557666999997309,1
15351,142,Larynx,Sham,Tone,Noise,64,3,0,0.624731100000645,1
15352,142,Larynx,Sham,Tone,Noise,65,3,0,0.588202300001285,1
15353,142,Larynx,Sham,Tone,Noise,66,1,0,0.758747900003073,1
15354,142,Larynx,Sham,Tone,Noise,67,5,1,0.544602500001929,1
15355,142,Larynx,Sham,Tone,Noise,68,2,0,0.6976168000001051,1
15356,142,Larynx,Sham,Tone,Noise,69,4,1,0.6437273000010459,1
15357,142,Larynx,Sham,Tone,Noise,70,2,0,0.718219499998668,1
15358,142,Larynx,Sham,Tone,Noise,71,3,1,0.612431199999264,1
15359,142,Larynx,Sham,Tone,Noise,72,3,0,0.6812304000013679,1
15360,142,Larynx,Sham,Tone,Noise,73,2,0,0.697587499998917,1
15361,142,Larynx,Sham,Tone,Noise,74,4,1,0.7216255000021189,1
15362,142,Larynx,Sham,Tone,Noise,75,3,0,0.79210989999774,1
15363,142,Larynx,Sham,Tone,Noise,76,5,1,0.904421899998852,1
15364,142,Larynx,Sham,Tone,Noise,77,1,0,0.568565800000215,1
15365,142,Larynx,Sham,Tone,Noise,78,4,1,0.498615500000597,1
15366,142,Larynx,Sham,Tone,Noise,79,5,1,0.832690200000798,1
15367,142,Larynx,Sham,Tone,Noise,80,3,0,0.7050319000009041,1
15368,142,Larynx,Sham,Tone,Noise,81,3,0,0.624990599997545,1
15369,142,Larynx,Sham,Tone,Noise,82,4,1,0.5291649999999211,1
15370,142,Larynx,Sham,Tone,Noise,83,3,1,0.490818599999329,1
15371,142,Larynx,Sham,Tone,Noise,84,4,1,0.8545479999993401,1
15372,142,Larynx,Sham,Tone,Noise,85,1,0,0.6604251999997359,1
15373,142,Larynx,Sham,Tone,Noise,86,3,0,0.6662954000021271,1
15374,142,Larynx,Sham,Tone,Noise,87,2,1,0.609974499999225,1
15375,142,Larynx,Sham,Tone,Noise,88,1,0,0.661649199999374,1
15376,142,Larynx,Sham,Tone,Noise,89,4,0,0.643202700000984,1
15377,142,Larynx,Sham,Tone,Noise,90,3,0,0.6925103999965361,1
15378,142,Larynx,Sham,Tone,Noise,91,3,1,0.654295800002728,1
15379,142,Larynx,Sham,Tone,Noise,92,1,0,0.956473600002937,1
15380,142,Larynx,Sham,Tone,Noise,93,5,1,0.628650800001196,1
15381,142,Larynx,Sham,Tone,Noise,94,2,0,0.622915199997806,1
15382,142,Larynx,Sham,Tone,Noise,95,1,0,0.678208400000585,1
15383,142,Larynx,Sham,Tone,Noise,96,4,1,0.560766400001739,1
15384,142,Larynx,Sham,Tone,Noise,97,4,1,0.5158521000012121,1
15385,142,Larynx,Sham,Tone,Noise,98,2,0,0.678938100001687,1
15386,142,Larynx,Sham,Tone,Noise,99,2,0,0.825157000002946,1
15387,142,Larynx,Sham,Tone,Noise,100,4,1,0.52215200000137,1
15388,142,Larynx,Sham,Tone,Noise,101,3,0,0.7086400999978649,1
15389,142,Larynx,Sham,Tone,Noise,102,2,0,0.574083399998926,1
15390,142,Larynx,Sham,Tone,Noise,103,3,0,0.612449800002651,1
15391,142,Larynx,Sham,Tone,Noise,104,3,0,0.621856800000387,1
15392,142,Larynx,Sham,Tone,Noise,105,5,1,0.558454800000618,1
15393,142,Larynx,Sham,Tone,Noise,106,2,0,0.693050199999561,1
15394,142,Larynx,Sham,Tone,Noise,107,2,0,0.677209000001312,1
15395,142,Larynx,Sham,Tone,Noise,108,4,1,0.508600599998317,1
15396,142,Larynx,Sham,Tone,Noise,109,5,1,0.68837540000095,1
15397,142,Larynx,Sham,Tone,Noise,110,1,0,0.628478700000414,1
15398,142,Larynx,Sham,Tone,Noise,111,5,1,0.6628373999992621,1
15399,142,Larynx,Sham,Tone,Noise,112,1,0,0.549949399999605,1
15400,142,Larynx,Sham,Tone,Noise,113,4,1,0.753565800001525,1
15401,142,Larynx,Sham,Tone,Noise,114,3,0,0.651772600002005,1
15402,142,Larynx,Sham,Tone,Noise,115,2,0,0.763781199999357,1
15403,142,Larynx,Sham,Tone,Noise,116,3,1,0.563612400001148,1
15404,142,Larynx,Sham,Tone,Noise,117,5,1,0.616719699999521,1
15405,142,Larynx,Sham,Tone,Noise,118,4,1,0.740747400002874,1
15406,142,Larynx,Sham,Tone,Noise,119,5,1,0.6961191999980659,1
15407,142,Larynx,Sham,Tone,Noise,120,2,0,0.536082700000406,1
15408,142,Larynx,Sham,Tone,Noise,121,3,0,0.613847500000702,1
15409,142,Larynx,Sham,Tone,Noise,122,4,1,0.5841885000008921,1
15410,142,Larynx,Sham,Tone,Noise,123,4,1,0.62944719999723,1
15411,142,Larynx,Sham,Tone,Noise,124,2,0,0.526701999999204,1
15412,142,Larynx,Sham,Tone,Noise,125,2,0,0.625565800000913,1
15413,142,Larynx,Sham,Tone,Noise,126,3,1,0.5548191999987471,1
15414,142,Larynx,Sham,Tone,Noise,127,5,1,0.88201609999669,1
15415,142,Larynx,Sham,Tone,Noise,128,1,0,0.784342000002653,1
15416,142,Larynx,Sham,Tone,Noise,129,4,0,0.578783299999486,1
15417,142,Larynx,Sham,Tone,Noise,130,3,0,0.7440002000003009,1
15418,142,Larynx,Sham,Tone,Noise,131,1,0,0.871390299998893,1
15419,142,Larynx,Sham,Tone,Noise,132,3,1,0.7309883000016271,1
15420,142,Larynx,Sham,Tone,Noise,133,3,1,0.639191900001606,1
15421,142,Larynx,Sham,Tone,Noise,134,1,1,1.04795390000072,1
15422,142,Larynx,Sham,Tone,Noise,135,2,1,1.15864330000113,1
15423,142,Larynx,Sham,Tone,Noise,136,5,1,0.9379632000018321,1
15424,142,Larynx,Sham,Tone,Noise,137,5,0,0.706471699999383,1
15425,142,Larynx,Sham,Tone,Noise,138,4,1,0.724138500001573,1
15426,142,Larynx,Sham,Tone,Noise,139,3,0,0.647480200001155,1
15427,142,Larynx,Sham,Tone,Noise,140,3,0,0.9633432000009631,1
15428,142,Larynx,Sham,Tone,Noise,141,5,0,0.815747299999202,1
15429,142,Larynx,Sham,Tone,Noise,142,4,1,0.734840000000986,1
15430,142,Larynx,Sham,Tone,Noise,143,3,0,1.03454099999726,1
15431,142,Larynx,Sham,Tone,Noise,144,2,0,0.9550641000023459,1
15432,142,Larynx,Sham,Tone,Noise,145,4,1,0.815613599999779,1
15433,142,Larynx,Sham,Tone,Noise,146,1,0,0.659484600000724,1
15434,142,Larynx,Sham,Tone,Noise,147,1,0,0.7123107000006709,1
15435,142,Larynx,Sham,Tone,Noise,148,3,0,0.6539852999994761,1
15436,142,Larynx,Sham,Tone,Noise,149,2,1,0.6008290999998279,1
15437,142,Larynx,Sham,Tone,Noise,150,1,0,0.626550200002384,1
15438,142,Larynx,Sham,Tone,Noise,151,5,1,0.554309700000886,1
15439,142,Larynx,Sham,Tone,Noise,152,2,0,0.610873400000855,1
15440,142,Larynx,Sham,Tone,Noise,153,4,1,0.50749359999827,1
15441,142,Larynx,Sham,Tone,Noise,154,3,0,0.7692647000003492,1
15442,142,Larynx,Sham,Tone,Noise,155,3,1,0.8415232999977891,1
15443,142,Larynx,Sham,Tone,Noise,156,2,0,0.6848255000004431,1
16536,201,Larynx,Left cTBS,Tone,Noise,1,2,0,1.3118413000484,1
16537,201,Larynx,Left cTBS,Tone,Noise,2,3,0,0.929452900018077,1
16538,201,Larynx,Left cTBS,Tone,Noise,3,2,0,0.688216799986549,1
16539,201,Larynx,Left cTBS,Tone,Noise,4,3,1,1.07827230001567,1
16540,201,Larynx,Left cTBS,Tone,Noise,5,1,0,0.6226704000146129,1
16541,201,Larynx,Left cTBS,Tone,Noise,6,3,0,1.15148149995366,1
16542,201,Larynx,Left cTBS,Tone,Noise,7,4,1,0.722416899981909,1
16543,201,Larynx,Left cTBS,Tone,Noise,8,5,1,0.682810600032099,1
16544,201,Larynx,Left cTBS,Tone,Noise,9,2,0,0.722986200009473,1
16545,201,Larynx,Left cTBS,Tone,Noise,10,2,0,0.6070742000010799,1
16546,201,Larynx,Left cTBS,Tone,Noise,11,1,0,0.600649699976202,1
16547,201,Larynx,Left cTBS,Tone,Noise,12,1,0,0.625472399988212,1
16548,201,Larynx,Left cTBS,Tone,Noise,13,5,1,0.6472244999604301,1
16549,201,Larynx,Left cTBS,Tone,Noise,14,4,1,0.646419400000013,1
16550,201,Larynx,Left cTBS,Tone,Noise,15,5,1,0.6308853999944399,1
16551,201,Larynx,Left cTBS,Tone,Noise,16,4,0,0.7505718000466,1
16552,201,Larynx,Left cTBS,Tone,Noise,17,3,0,0.693345599982422,1
16553,201,Larynx,Left cTBS,Tone,Noise,18,2,0,0.9155945000238721,1
16554,201,Larynx,Left cTBS,Tone,Noise,19,1,0,0.987105100008193,1
16555,201,Larynx,Left cTBS,Tone,Noise,20,1,1,0.8598532000323761,1
16556,201,Larynx,Left cTBS,Tone,Noise,21,5,1,0.643089799967129,1
16557,201,Larynx,Left cTBS,Tone,Noise,22,2,1,0.936706600012258,1
16558,201,Larynx,Left cTBS,Tone,Noise,23,4,1,0.6280238999752329,1
16559,201,Larynx,Left cTBS,Tone,Noise,24,4,1,0.715194099990185,1
16560,201,Larynx,Left cTBS,Tone,Noise,25,5,1,0.697724799974822,1
16561,201,Larynx,Left cTBS,Tone,Noise,26,4,1,0.656150499999058,1
16562,201,Larynx,Left cTBS,Tone,Noise,27,3,1,0.9516734000062571,1
16563,201,Larynx,Left cTBS,Tone,Noise,28,3,0,0.844251300033648,1
16564,201,Larynx,Left cTBS,Tone,Noise,29,2,1,0.865067400038242,1
16565,201,Larynx,Left cTBS,Tone,Noise,30,3,1,0.7129705999977891,1
16566,201,Larynx,Left cTBS,Tone,Noise,31,4,1,0.9789482000051071,1
16567,201,Larynx,Left cTBS,Tone,Noise,32,3,1,0.916015600028913,1
16568,201,Larynx,Left cTBS,Tone,Noise,33,1,0,0.7898180999909531,1
16569,201,Larynx,Left cTBS,Tone,Noise,34,2,0,0.7535675000399351,1
16570,201,Larynx,Left cTBS,Tone,Noise,35,3,1,0.7337815000209961,1
16571,201,Larynx,Left cTBS,Tone,Noise,36,5,1,0.6707083999644959,1
16572,201,Larynx,Left cTBS,Tone,Noise,37,4,1,0.664326899976004,1
16573,201,Larynx,Left cTBS,Tone,Noise,38,3,1,0.73455329996068,1
16574,201,Larynx,Left cTBS,Tone,Noise,39,3,1,0.8618145000073131,1
16575,201,Larynx,Left cTBS,Tone,Noise,40,3,1,0.750849900010508,1
16576,201,Larynx,Left cTBS,Tone,Noise,41,3,0,0.589680799981579,1
16577,201,Larynx,Left cTBS,Tone,Noise,42,5,1,0.8009666999569158,1
