,subj_idx,group_idx,turn_type,task_type,snr_type,trial_num,step_att,response,rt,step_unatnd
312,55,Larynx,Left iTBS,Tone,Noise,1,5,1,2.1720986000145803,1
313,55,Larynx,Left iTBS,Tone,Noise,2,3,1,1.32638969999971,1
314,55,Larynx,Left iTBS,Tone,Noise,3,1,0,0.9105186999659051,1
315,55,Larynx,Left iTBS,Tone,Noise,4,2,1,0.656503999955021,1
316,55,Larynx,Left iTBS,Tone,Noise,5,2,0,0.507991800026502,1
317,55,Larynx,Left iTBS,Tone,Noise,6,3,1,0.5451762999873611,1
318,55,Larynx,Left iTBS,Tone,Noise,7,3,0,0.59649729996454,1
319,55,Larynx,Left iTBS,Tone,Noise,8,4,1,0.565393100026995,1
320,55,Larynx,Left iTBS,Tone,Noise,9,4,0,0.47302219999255607,1
321,55,Larynx,Left iTBS,Tone,Noise,10,1,1,0.370373599987943,1
322,55,Larynx,Left iTBS,Tone,Noise,11,2,0,0.45234719995642103,1
323,55,Larynx,Left iTBS,Tone,Noise,12,3,1,0.3692692000186071,1
324,55,Larynx,Left iTBS,Tone,Noise,13,5,0,0.531894399959128,1
325,55,Larynx,Left iTBS,Tone,Noise,14,3,1,0.40245479997247496,1
326,55,Larynx,Left iTBS,Tone,Noise,15,4,1,0.8770146000315441,1
327,55,Larynx,Left iTBS,Tone,Noise,16,2,0,0.582637200015597,1
328,55,Larynx,Left iTBS,Tone,Noise,17,1,0,1.14082380000036,1
329,55,Larynx,Left iTBS,Tone,Noise,18,5,1,1.2498977999785,1
330,55,Larynx,Left iTBS,Tone,Noise,19,1,0,0.815427199995611,1
331,55,Larynx,Left iTBS,Tone,Noise,20,4,0,0.696717299986631,1
332,55,Larynx,Left iTBS,Tone,Noise,21,3,0,1.89301910001086,1
333,55,Larynx,Left iTBS,Tone,Noise,22,1,0,2.60108290001517,1
334,55,Larynx,Left iTBS,Tone,Noise,23,5,0,0.8955638000043109,1
335,55,Larynx,Left iTBS,Tone,Noise,24,2,1,1.0063376000034598,1
336,55,Larynx,Left iTBS,Tone,Noise,25,5,0,0.913051600044128,1
337,55,Larynx,Left iTBS,Tone,Noise,26,3,0,1.4652435000171,1
338,55,Larynx,Left iTBS,Tone,Noise,27,2,0,0.604738799971528,1
339,55,Larynx,Left iTBS,Tone,Noise,28,4,0,0.556942399998661,1
340,55,Larynx,Left iTBS,Tone,Noise,29,3,0,0.712626599997748,1
341,55,Larynx,Left iTBS,Tone,Noise,30,1,0,0.730131599993911,1
342,55,Larynx,Left iTBS,Tone,Noise,31,2,0,0.7809097999706859,1
343,55,Larynx,Left iTBS,Tone,Noise,32,3,0,0.725971399981063,1
344,55,Larynx,Left iTBS,Tone,Noise,33,4,0,0.7177732000127429,1
345,55,Larynx,Left iTBS,Tone,Noise,34,3,0,0.956967200036161,1
346,55,Larynx,Left iTBS,Tone,Noise,35,3,0,0.875473699998111,1
347,55,Larynx,Left iTBS,Tone,Noise,36,5,1,0.9582873000181279,1
348,55,Larynx,Left iTBS,Tone,Noise,37,2,0,0.67319130001124,1
349,55,Larynx,Left iTBS,Tone,Noise,38,4,0,1.2492726999917099,1
350,55,Larynx,Left iTBS,Tone,Noise,39,4,0,0.630132800026331,1
351,55,Larynx,Left iTBS,Tone,Noise,40,4,1,0.936209700012114,1
352,55,Larynx,Left iTBS,Tone,Noise,41,3,0,0.842429600015748,1
353,55,Larynx,Left iTBS,Tone,Noise,42,4,0,1.22919390001334,1
354,55,Larynx,Left iTBS,Tone,Noise,43,5,0,1.87972610001452,1
355,55,Larynx,Left iTBS,Tone,Noise,44,2,0,0.913752500026021,1
356,55,Larynx,Left iTBS,Tone,Noise,45,1,0,0.6789565000217409,1
357,55,Larynx,Left iTBS,Tone,Noise,46,2,1,0.9513162999646742,1
358,55,Larynx,Left iTBS,Tone,Noise,47,4,0,1.9626928999787199,1
359,55,Larynx,Left iTBS,Tone,Noise,48,1,0,0.6320601999759671,1
360,55,Larynx,Left iTBS,Tone,Noise,49,3,0,0.717875899979845,1
361,55,Larynx,Left iTBS,Tone,Noise,50,4,0,1.4774823999614501,1
362,55,Larynx,Left iTBS,Tone,Noise,51,1,0,1.65117799997097,1
363,55,Larynx,Left iTBS,Tone,Noise,52,5,1,0.953317100007553,1
364,55,Larynx,Left iTBS,Tone,Noise,53,3,0,0.64135469996836,1
365,55,Larynx,Left iTBS,Tone,Noise,54,3,0,0.8372080999542959,1
366,55,Larynx,Left iTBS,Tone,Noise,55,5,1,0.95029439998325,1
367,55,Larynx,Left iTBS,Tone,Noise,56,2,0,0.918088499980513,1
368,55,Larynx,Left iTBS,Tone,Noise,57,2,0,0.9618735000258308,1
369,55,Larynx,Left iTBS,Tone,Noise,58,3,0,1.26799919997575,1
370,55,Larynx,Left iTBS,Tone,Noise,59,4,1,1.86238030000823,1
371,55,Larynx,Left iTBS,Tone,Noise,60,3,0,1.24802699999418,1
372,55,Larynx,Left iTBS,Tone,Noise,61,4,1,1.11046210001223,1
373,55,Larynx,Left iTBS,Tone,Noise,62,1,0,0.970792799955234,1
374,55,Larynx,Left iTBS,Tone,Noise,63,3,1,0.937086100049783,1
375,55,Larynx,Left iTBS,Tone,Noise,64,2,0,0.5535045000142421,1
376,55,Larynx,Left iTBS,Tone,Noise,65,3,0,1.0612139999866501,1
377,55,Larynx,Left iTBS,Tone,Noise,66,4,0,0.5624258000170811,1
378,55,Larynx,Left iTBS,Tone,Noise,67,5,0,2.3345260999631097,1
379,55,Larynx,Left iTBS,Tone,Noise,68,1,1,0.7383314999751751,1
380,55,Larynx,Left iTBS,Tone,Noise,69,2,0,0.556298499985132,1
381,55,Larynx,Left iTBS,Tone,Noise,70,3,0,0.530754800012801,1
382,55,Larynx,Left iTBS,Tone,Noise,71,4,0,0.47933770000236103,1
383,55,Larynx,Left iTBS,Tone,Noise,72,5,0,0.7364168000058271,1
384,55,Larynx,Left iTBS,Tone,Noise,73,3,0,1.13219420000678,1
385,55,Larynx,Left iTBS,Tone,Noise,74,2,0,0.6910506000276659,1
386,55,Larynx,Left iTBS,Tone,Noise,75,1,0,0.949066800007131,1
387,55,Larynx,Left iTBS,Tone,Noise,76,2,1,1.04672939999728,1
388,55,Larynx,Left iTBS,Tone,Noise,77,3,0,0.661418599949684,1
389,55,Larynx,Left iTBS,Tone,Noise,78,5,0,1.4184606000198998,1
390,55,Larynx,Left iTBS,Tone,Noise,79,3,0,0.790603300032672,1
391,55,Larynx,Left iTBS,Tone,Noise,80,1,0,0.683256299991626,1
392,55,Larynx,Left iTBS,Tone,Noise,81,1,1,0.924611700000241,1
393,55,Larynx,Left iTBS,Tone,Noise,82,2,0,0.8383633000194101,1
394,55,Larynx,Left iTBS,Tone,Noise,83,2,1,1.13735689996975,1
395,55,Larynx,Left iTBS,Tone,Noise,84,2,0,0.6876530000008639,1
396,55,Larynx,Left iTBS,Tone,Noise,85,3,0,3.5258910999982596,1
397,55,Larynx,Left iTBS,Tone,Noise,86,5,0,0.950596000009682,1
398,55,Larynx,Left iTBS,Tone,Noise,87,5,0,0.797574399970472,1
399,55,Larynx,Left iTBS,Tone,Noise,88,1,0,1.00752930005547,1
400,55,Larynx,Left iTBS,Tone,Noise,89,1,0,0.6980702999862839,1
401,55,Larynx,Left iTBS,Tone,Noise,90,3,0,0.626189200032968,1
402,55,Larynx,Left iTBS,Tone,Noise,91,4,0,0.6241617000196129,1
403,55,Larynx,Left iTBS,Tone,Noise,92,4,1,1.09931109996978,1
404,55,Larynx,Left iTBS,Tone,Noise,93,5,0,0.8412304000230509,1
405,55,Larynx,Left iTBS,Tone,Noise,94,5,0,0.9249761999817571,1
406,55,Larynx,Left iTBS,Tone,Noise,95,3,0,0.851033499988262,1
407,55,Larynx,Left iTBS,Tone,Noise,96,4,0,0.589268900046591,1
408,55,Larynx,Left iTBS,Tone,Noise,97,3,0,0.5434898999519651,1
409,55,Larynx,Left iTBS,Tone,Noise,98,2,0,0.557524700008798,1
410,55,Larynx,Left iTBS,Tone,Noise,99,2,1,0.9042848999961279,1
411,55,Larynx,Left iTBS,Tone,Noise,100,3,0,0.863354500033893,1
412,55,Larynx,Left iTBS,Tone,Noise,101,4,0,0.63824460003525,1
413,55,Larynx,Left iTBS,Tone,Noise,102,3,0,0.50104389997432,1
414,55,Larynx,Left iTBS,Tone,Noise,103,4,0,0.626539700024296,1
415,55,Larynx,Left iTBS,Tone,Noise,104,2,1,1.17057399998885,1
416,55,Larynx,Left iTBS,Tone,Noise,105,3,0,0.9944653999991719,1
417,55,Larynx,Left iTBS,Tone,Noise,106,3,0,0.6346330000087621,1
418,55,Larynx,Left iTBS,Tone,Noise,107,5,0,0.506191899999976,1
419,55,Larynx,Left iTBS,Tone,Noise,108,4,1,3.4283025999902703,1
420,55,Larynx,Left iTBS,Tone,Noise,109,5,0,0.706046300008893,1
421,55,Larynx,Left iTBS,Tone,Noise,110,2,0,0.609401399968192,1
422,55,Larynx,Left iTBS,Tone,Noise,111,4,0,0.5826206000056121,1
423,55,Larynx,Left iTBS,Tone,Noise,112,2,0,0.627008799987379,1
424,55,Larynx,Left iTBS,Tone,Noise,113,4,0,0.662324599979911,1
425,55,Larynx,Left iTBS,Tone,Noise,114,1,0,0.962023200001568,1
426,55,Larynx,Left iTBS,Tone,Noise,115,3,1,0.7888847999856808,1
427,55,Larynx,Left iTBS,Tone,Noise,116,1,0,0.6773550999932919,1
428,55,Larynx,Left iTBS,Tone,Noise,117,3,1,1.01770199998282,1
429,55,Larynx,Left iTBS,Tone,Noise,118,5,0,0.535687999974471,1
430,55,Larynx,Left iTBS,Tone,Noise,119,2,1,0.7317917000036691,1
431,55,Larynx,Left iTBS,Tone,Noise,120,4,0,0.680213999992702,1
432,55,Larynx,Left iTBS,Tone,Noise,121,3,0,0.606548999960069,1
433,55,Larynx,Left iTBS,Tone,Noise,122,5,0,0.859225099964533,1
434,55,Larynx,Left iTBS,Tone,Noise,123,1,0,0.6298050999757829,1
435,55,Larynx,Left iTBS,Tone,Noise,124,4,0,0.7680857999948779,1
436,55,Larynx,Left iTBS,Tone,Noise,125,5,0,0.7537876000278629,1
437,55,Larynx,Left iTBS,Tone,Noise,126,2,0,0.644082500017248,1
438,55,Larynx,Left iTBS,Tone,Noise,127,5,0,0.490927600010764,1
439,55,Larynx,Left iTBS,Tone,Noise,128,5,1,0.9736080999718979,1
440,55,Larynx,Left iTBS,Tone,Noise,129,3,0,0.783060100045986,1
441,55,Larynx,Left iTBS,Tone,Noise,130,4,0,0.6044913000077939,1
442,55,Larynx,Left iTBS,Tone,Noise,131,3,0,0.598062500008382,1
443,55,Larynx,Left iTBS,Tone,Noise,132,3,0,1.35088260000339,1
444,55,Larynx,Left iTBS,Tone,Noise,133,4,1,1.01140330004273,1
445,55,Larynx,Left iTBS,Tone,Noise,134,1,0,0.7620011999970301,1
446,55,Larynx,Left iTBS,Tone,Noise,135,1,0,0.7584647999610749,1
447,55,Larynx,Left iTBS,Tone,Noise,136,4,0,0.5985622000298461,1
448,55,Larynx,Left iTBS,Tone,Noise,137,2,1,0.8184509999700821,1
449,55,Larynx,Left iTBS,Tone,Noise,138,2,0,0.699019499996211,1
450,55,Larynx,Left iTBS,Tone,Noise,139,3,0,0.4858035999932329,1
451,55,Larynx,Left iTBS,Tone,Noise,140,3,0,0.6778559000231329,1
452,55,Larynx,Left iTBS,Tone,Noise,141,1,1,0.980667800002266,1
453,55,Larynx,Left iTBS,Tone,Noise,142,4,1,1.24442239996279,1
454,55,Larynx,Left iTBS,Tone,Noise,143,3,0,0.688566400029231,1
455,55,Larynx,Left iTBS,Tone,Noise,144,2,0,0.96156389999669,1
456,55,Larynx,Left iTBS,Tone,Noise,145,2,1,0.9950327000115071,1
457,55,Larynx,Left iTBS,Tone,Noise,146,4,0,0.724207199993543,1
458,55,Larynx,Left iTBS,Tone,Noise,147,3,0,0.5271127999876629,1
459,55,Larynx,Left iTBS,Tone,Noise,148,4,0,0.604984599980526,1
460,55,Larynx,Left iTBS,Tone,Noise,149,1,1,1.75835229997756,1
461,55,Larynx,Left iTBS,Tone,Noise,150,1,0,0.523876900027972,1
462,55,Larynx,Left iTBS,Tone,Noise,151,2,0,0.7139027999946851,1
463,55,Larynx,Left iTBS,Tone,Noise,152,2,1,0.92748070001835,1
464,55,Larynx,Left iTBS,Tone,Noise,153,3,0,0.6077933000051421,1
465,55,Larynx,Left iTBS,Tone,Noise,154,3,1,1.01382779999403,1
466,55,Larynx,Left iTBS,Tone,Noise,155,5,0,1.33228609996149,1
467,55,Larynx,Left iTBS,Tone,Noise,156,3,1,0.6866690000169909,1
2808,55,Larynx,Sham,Tone,Noise,1,3,1,2.01130639994517,1
2809,55,Larynx,Sham,Tone,Noise,2,1,1,1.08731140010059,1
2810,55,Larynx,Sham,Tone,Noise,3,3,1,1.09449879999738,1
2811,55,Larynx,Sham,Tone,Noise,4,5,0,1.21376499999315,1
2812,55,Larynx,Sham,Tone,Noise,5,2,1,0.690343399997801,1
2813,55,Larynx,Sham,Tone,Noise,6,1,1,0.5122652000281961,1
2814,55,Larynx,Sham,Tone,Noise,7,5,1,0.4605447999201721,1
2815,55,Larynx,Sham,Tone,Noise,8,1,0,0.539366599987261,1
2816,55,Larynx,Sham,Tone,Noise,9,1,1,0.503369799931534,1
2817,55,Larynx,Sham,Tone,Noise,10,3,1,0.538616199977696,1
2818,55,Larynx,Sham,Tone,Noise,11,1,1,0.49804069998208395,1
2819,55,Larynx,Sham,Tone,Noise,12,2,0,0.5991795000154531,1
2820,55,Larynx,Sham,Tone,Noise,13,2,0,0.7082104000728578,1
2821,55,Larynx,Sham,Tone,Noise,14,3,0,0.542668999987654,1
2822,55,Larynx,Sham,Tone,Noise,15,5,1,1.39201419998426,1
2823,55,Larynx,Sham,Tone,Noise,16,3,0,0.9726902000838891,1
2824,55,Larynx,Sham,Tone,Noise,17,3,0,1.05398490000516,1
2825,55,Larynx,Sham,Tone,Noise,18,4,0,0.7130913001019509,1
2826,55,Larynx,Sham,Tone,Noise,19,3,0,1.29794129997026,1
2827,55,Larynx,Sham,Tone,Noise,20,4,0,2.10636520001572,1
2828,55,Larynx,Sham,Tone,Noise,21,2,0,1.86154409998562,1
2829,55,Larynx,Sham,Tone,Noise,22,5,0,1.3756670999573501,1
2830,55,Larynx,Sham,Tone,Noise,23,2,1,1.29942289995961,1
2831,55,Larynx,Sham,Tone,Noise,24,5,1,1.39714490005281,1
2832,55,Larynx,Sham,Tone,Noise,25,5,0,1.33102599997073,1
2833,55,Larynx,Sham,Tone,Noise,26,4,0,1.35505680006463,1
2834,55,Larynx,Sham,Tone,Noise,27,4,1,1.22955020004883,1
2835,55,Larynx,Sham,Tone,Noise,28,3,0,0.6117222999455411,1
2836,55,Larynx,Sham,Tone,Noise,29,4,0,0.819820699980482,1
2837,55,Larynx,Sham,Tone,Noise,30,2,0,0.714727999991737,1
2838,55,Larynx,Sham,Tone,Noise,31,3,1,1.0259114000946299,1
2839,55,Larynx,Sham,Tone,Noise,32,4,0,0.7935035999398679,1
2840,55,Larynx,Sham,Tone,Noise,33,4,0,0.605571900028735,1
2841,55,Larynx,Sham,Tone,Noise,34,4,0,0.641479499987327,1
2842,55,Larynx,Sham,Tone,Noise,35,3,1,0.819499099976383,1
2843,55,Larynx,Sham,Tone,Noise,36,2,0,0.643667399999686,1
2844,55,Larynx,Sham,Tone,Noise,37,2,0,1.0897437999956299,1
2845,55,Larynx,Sham,Tone,Noise,38,3,0,0.6135700000450021,1
2846,55,Larynx,Sham,Tone,Noise,39,1,1,1.92114989995025,1
2847,55,Larynx,Sham,Tone,Noise,40,2,0,1.16850400005933,1
2848,55,Larynx,Sham,Tone,Noise,41,3,0,0.889654199942015,1
2849,55,Larynx,Sham,Tone,Noise,42,1,0,0.666969900019467,1
2850,55,Larynx,Sham,Tone,Noise,43,4,0,0.76637819991447,1
2851,55,Larynx,Sham,Tone,Noise,44,3,0,0.6602273000171409,1
2852,55,Larynx,Sham,Tone,Noise,45,3,0,1.26705349993426,1
2853,55,Larynx,Sham,Tone,Noise,46,1,0,0.659541300032288,1
2854,55,Larynx,Sham,Tone,Noise,47,4,0,0.6890340000391011,1
2855,55,Larynx,Sham,Tone,Noise,48,5,0,0.666303799953312,1
2856,55,Larynx,Sham,Tone,Noise,49,2,0,1.32056439993903,1
2857,55,Larynx,Sham,Tone,Noise,50,3,0,1.57801479997579,1
2858,55,Larynx,Sham,Tone,Noise,51,2,0,2.6240682998905,1
2859,55,Larynx,Sham,Tone,Noise,52,4,0,1.39617720001843,1
2860,55,Larynx,Sham,Tone,Noise,53,3,1,1.3979766999837,1
2861,55,Larynx,Sham,Tone,Noise,54,3,0,0.6823830999201159,1
2862,55,Larynx,Sham,Tone,Noise,55,5,1,1.2742736999644,1
2863,55,Larynx,Sham,Tone,Noise,56,3,0,0.666897999937646,1
2864,55,Larynx,Sham,Tone,Noise,57,2,0,0.824394700000994,1
2865,55,Larynx,Sham,Tone,Noise,58,1,0,0.859792500035837,1
2866,55,Larynx,Sham,Tone,Noise,59,2,0,0.7347166000399742,1
2867,55,Larynx,Sham,Tone,Noise,60,4,1,0.9477657999377701,1
2868,55,Larynx,Sham,Tone,Noise,61,3,0,2.47081129997969,1
2869,55,Larynx,Sham,Tone,Noise,62,5,0,0.7835535000776871,1
2870,55,Larynx,Sham,Tone,Noise,63,4,1,0.911370099987835,1
2871,55,Larynx,Sham,Tone,Noise,64,3,0,2.37796020007227,1
2872,55,Larynx,Sham,Tone,Noise,65,1,0,1.33781689999159,1
2873,55,Larynx,Sham,Tone,Noise,66,2,0,0.904237400041893,1
2874,55,Larynx,Sham,Tone,Noise,67,5,1,1.2183247000211899,1
2875,55,Larynx,Sham,Tone,Noise,68,3,0,0.66141050006263,1
2876,55,Larynx,Sham,Tone,Noise,69,5,0,0.696390900062397,1
2877,55,Larynx,Sham,Tone,Noise,70,4,0,0.894281500019133,1
2878,55,Larynx,Sham,Tone,Noise,71,5,0,2.15019169996958,1
2879,55,Larynx,Sham,Tone,Noise,72,4,0,1.02427069994155,1
2880,55,Larynx,Sham,Tone,Noise,73,1,0,0.767642999999225,1
2881,55,Larynx,Sham,Tone,Noise,74,3,0,0.803426699945703,1
2882,55,Larynx,Sham,Tone,Noise,75,1,1,0.799302899977192,1
2883,55,Larynx,Sham,Tone,Noise,76,2,0,0.6084718999918549,1
2884,55,Larynx,Sham,Tone,Noise,77,2,0,0.5994260000297801,1
2885,55,Larynx,Sham,Tone,Noise,78,4,0,1.30318470008206,1
2886,55,Larynx,Sham,Tone,Noise,79,1,1,0.874947699951008,1
2887,55,Larynx,Sham,Tone,Noise,80,3,0,1.03125549992546,1
2888,55,Larynx,Sham,Tone,Noise,81,3,0,0.647829400026239,1
2889,55,Larynx,Sham,Tone,Noise,82,1,0,0.582961500040255,1
2890,55,Larynx,Sham,Tone,Noise,83,3,1,0.746274200035259,1
2891,55,Larynx,Sham,Tone,Noise,84,2,1,1.37500560004264,1
2892,55,Larynx,Sham,Tone,Noise,85,5,0,0.940070900018327,1
2893,55,Larynx,Sham,Tone,Noise,86,3,0,1.5682862000539899,1
2894,55,Larynx,Sham,Tone,Noise,87,2,0,1.03650249994826,1
2895,55,Larynx,Sham,Tone,Noise,88,1,0,0.8331051000859592,1
2896,55,Larynx,Sham,Tone,Noise,89,4,0,0.7592271999455992,1
2897,55,Larynx,Sham,Tone,Noise,90,5,1,1.9063662000698998,1
2898,55,Larynx,Sham,Tone,Noise,91,4,0,0.93473819992505,1
2899,55,Larynx,Sham,Tone,Noise,92,3,0,0.7947772999759759,1
2900,55,Larynx,Sham,Tone,Noise,93,2,0,0.7748002000153059,1
2901,55,Larynx,Sham,Tone,Noise,94,5,1,0.7967997998930509,1
2902,55,Larynx,Sham,Tone,Noise,95,4,0,1.13933170004748,1
2903,55,Larynx,Sham,Tone,Noise,96,2,0,1.01399740006309,1
2904,55,Larynx,Sham,Tone,Noise,97,3,0,0.8269631000002851,1
2905,55,Larynx,Sham,Tone,Noise,98,2,1,1.11674520000815,1
2906,55,Larynx,Sham,Tone,Noise,99,1,0,0.646881200023927,1
2907,55,Larynx,Sham,Tone,Noise,100,2,0,0.671365599962883,1
2908,55,Larynx,Sham,Tone,Noise,101,4,0,0.8319058999186378,1
2909,55,Larynx,Sham,Tone,Noise,102,1,1,1.1726701000006898,1
2910,55,Larynx,Sham,Tone,Noise,103,4,0,0.836186600034125,1
2911,55,Larynx,Sham,Tone,Noise,104,4,0,0.937334499903955,1
2912,55,Larynx,Sham,Tone,Noise,105,2,0,0.75486829993315,1
2913,55,Larynx,Sham,Tone,Noise,106,3,1,2.17475509992801,1
2914,55,Larynx,Sham,Tone,Noise,107,5,0,0.784327999921516,1
2915,55,Larynx,Sham,Tone,Noise,108,2,1,1.03185230004601,1
2916,55,Larynx,Sham,Tone,Noise,109,5,1,0.7738280999474231,1
2917,55,Larynx,Sham,Tone,Noise,110,3,1,1.2578189000487299,1
2918,55,Larynx,Sham,Tone,Noise,111,5,0,1.3489857999375099,1
2919,55,Larynx,Sham,Tone,Noise,112,3,1,1.17792339995503,1
2920,55,Larynx,Sham,Tone,Noise,113,4,0,0.6929340000497181,1
2921,55,Larynx,Sham,Tone,Noise,114,4,0,0.7341013000113891,1
2922,55,Larynx,Sham,Tone,Noise,115,3,0,0.708226300077513,1
2923,55,Larynx,Sham,Tone,Noise,116,1,0,1.1567135999212,1
2924,55,Larynx,Sham,Tone,Noise,117,3,0,1.27742150006816,1
2925,55,Larynx,Sham,Tone,Noise,118,2,0,0.7740784999914471,1
2926,55,Larynx,Sham,Tone,Noise,119,3,0,0.761539199971594,1
2927,55,Larynx,Sham,Tone,Noise,120,1,1,0.8878500999417159,1
2928,55,Larynx,Sham,Tone,Noise,121,5,1,1.07813229993917,1
2929,55,Larynx,Sham,Tone,Noise,122,5,0,0.750248200027272,1
2930,55,Larynx,Sham,Tone,Noise,123,2,0,1.14305369998328,1
2931,55,Larynx,Sham,Tone,Noise,124,2,1,1.11040440003853,1
2932,55,Larynx,Sham,Tone,Noise,125,4,1,1.1555806000251299,1
2933,55,Larynx,Sham,Tone,Noise,126,4,1,0.7608957999618721,1
2934,55,Larynx,Sham,Tone,Noise,127,2,1,0.53100540000014,1
2935,55,Larynx,Sham,Tone,Noise,128,2,1,1.3790906999493,1
2936,55,Larynx,Sham,Tone,Noise,129,4,1,0.844286500010639,1
2937,55,Larynx,Sham,Tone,Noise,130,3,1,0.788289800053462,1
2938,55,Larynx,Sham,Tone,Noise,131,1,1,1.7608363999752301,1
2939,55,Larynx,Sham,Tone,Noise,132,2,1,2.04751319997013,1
2940,55,Larynx,Sham,Tone,Noise,133,3,0,0.9074457000242551,1
2941,55,Larynx,Sham,Tone,Noise,134,3,1,1.01146459998563,1
2942,55,Larynx,Sham,Tone,Noise,135,4,1,0.680207299999893,1
2943,55,Larynx,Sham,Tone,Noise,136,3,1,0.8309218999929731,1
2944,55,Larynx,Sham,Tone,Noise,137,4,1,1.9359390999889,1
2945,55,Larynx,Sham,Tone,Noise,138,2,0,0.497514600050636,1
2946,55,Larynx,Sham,Tone,Noise,139,1,0,0.418883099919185,1
2947,55,Larynx,Sham,Tone,Noise,140,3,0,0.45970699994359204,1
2948,55,Larynx,Sham,Tone,Noise,141,3,0,0.5351250999374321,1
2949,55,Larynx,Sham,Tone,Noise,142,5,0,0.49933520006015897,1
2950,55,Larynx,Sham,Tone,Noise,143,5,0,0.564101599971764,1
2951,55,Larynx,Sham,Tone,Noise,144,5,1,1.27066709997598,1
2952,55,Larynx,Sham,Tone,Noise,145,1,0,0.712188099976629,1
2953,55,Larynx,Sham,Tone,Noise,146,4,0,0.8448990000179041,1
2954,55,Larynx,Sham,Tone,Noise,147,3,0,0.711359199951403,1
2955,55,Larynx,Sham,Tone,Noise,148,1,0,0.9823337000561879,1
2956,55,Larynx,Sham,Tone,Noise,149,3,0,0.6983189000748101,1
2957,55,Larynx,Sham,Tone,Noise,150,1,0,0.683379599940963,1
2958,55,Larynx,Sham,Tone,Noise,151,2,0,1.92084749997593,1
2959,55,Larynx,Sham,Tone,Noise,152,4,0,0.7659305999986831,1
2960,55,Larynx,Sham,Tone,Noise,153,5,0,1.77889109996613,1
2961,55,Larynx,Sham,Tone,Noise,154,3,0,1.5171323999529698,1
2962,55,Larynx,Sham,Tone,Noise,155,3,1,1.27732610004023,1
2963,55,Larynx,Sham,Tone,Noise,156,4,0,1.0315892000217,1
3432,104,Larynx,Left iTBS,Tone,Noise,1,2,0,1.00945460004732,1
3433,104,Larynx,Left iTBS,Tone,Noise,2,3,0,1.005021900055,1
3434,104,Larynx,Left iTBS,Tone,Noise,3,1,0,0.502321099978872,1
3435,104,Larynx,Left iTBS,Tone,Noise,4,4,1,0.6337279999861489,1
3436,104,Larynx,Left iTBS,Tone,Noise,5,3,1,0.725165500072762,1
3437,104,Larynx,Left iTBS,Tone,Noise,6,3,0,0.7726057999534529,1
3438,104,Larynx,Left iTBS,Tone,Noise,7,1,0,0.81325280002784,1
3439,104,Larynx,Left iTBS,Tone,Noise,8,4,0,0.7270629000850021,1
3440,104,Larynx,Left iTBS,Tone,Noise,9,5,0,0.6020064000040289,1
3441,104,Larynx,Left iTBS,Tone,Noise,10,2,0,0.601979100028984,1
3442,104,Larynx,Left iTBS,Tone,Noise,11,3,0,0.7151791000505909,1
3443,104,Larynx,Left iTBS,Tone,Noise,12,2,0,0.868270399980247,1
3444,104,Larynx,Left iTBS,Tone,Noise,13,4,1,0.7275772000430151,1
3445,104,Larynx,Left iTBS,Tone,Noise,14,3,1,0.6173108000075439,1
3446,104,Larynx,Left iTBS,Tone,Noise,15,3,1,0.577556899981573,1
3447,104,Larynx,Left iTBS,Tone,Noise,16,5,0,0.6489487999351701,1
3448,104,Larynx,Left iTBS,Tone,Noise,17,3,0,0.660336299915798,1
3449,104,Larynx,Left iTBS,Tone,Noise,18,2,0,0.689753900049254,1
3450,104,Larynx,Left iTBS,Tone,Noise,19,1,0,0.606856500031427,1
3451,104,Larynx,Left iTBS,Tone,Noise,20,2,0,0.6949440999887879,1
3452,104,Larynx,Left iTBS,Tone,Noise,21,4,0,0.626263300073333,1
3453,104,Larynx,Left iTBS,Tone,Noise,22,3,0,0.5863181999884549,1
3454,104,Larynx,Left iTBS,Tone,Noise,23,5,0,0.666613999987021,1
3455,104,Larynx,Left iTBS,Tone,Noise,24,4,0,0.5674371999921279,1
3456,104,Larynx,Left iTBS,Tone,Noise,25,3,0,0.623056199983694,1
3457,104,Larynx,Left iTBS,Tone,Noise,26,1,0,0.727818300016224,1
3458,104,Larynx,Left iTBS,Tone,Noise,27,2,0,0.9444623000454159,1
3459,104,Larynx,Left iTBS,Tone,Noise,28,5,1,0.6949111999711021,1
3460,104,Larynx,Left iTBS,Tone,Noise,29,3,1,0.651286499924026,1
3461,104,Larynx,Left iTBS,Tone,Noise,30,5,1,0.5335391999688001,1
3462,104,Larynx,Left iTBS,Tone,Noise,31,4,0,0.669031099998392,1
3463,104,Larynx,Left iTBS,Tone,Noise,32,5,0,0.622230099979788,1
3464,104,Larynx,Left iTBS,Tone,Noise,33,4,1,0.6920493000652641,1
3465,104,Larynx,Left iTBS,Tone,Noise,34,1,1,0.581079800031148,1
3466,104,Larynx,Left iTBS,Tone,Noise,35,3,1,0.547883899998851,1
3467,104,Larynx,Left iTBS,Tone,Noise,36,1,1,0.8052020000759509,1
3468,104,Larynx,Left iTBS,Tone,Noise,37,2,0,0.7838036000030121,1
3469,104,Larynx,Left iTBS,Tone,Noise,38,2,0,0.56194649997633,1
3470,104,Larynx,Left iTBS,Tone,Noise,39,4,0,0.6956605999730531,1
3471,104,Larynx,Left iTBS,Tone,Noise,40,1,0,0.8390342999482528,1
3472,104,Larynx,Left iTBS,Tone,Noise,41,3,1,0.5865768999792641,1
3473,104,Larynx,Left iTBS,Tone,Noise,42,3,0,0.64128699991852,1
3474,104,Larynx,Left iTBS,Tone,Noise,43,1,0,0.6482273000292479,1
3475,104,Larynx,Left iTBS,Tone,Noise,44,3,0,0.5567534000147131,1
3476,104,Larynx,Left iTBS,Tone,Noise,45,2,0,0.5852812000084671,1
3477,104,Larynx,Left iTBS,Tone,Noise,46,5,0,0.5451341000152751,1
3478,104,Larynx,Left iTBS,Tone,Noise,47,3,1,0.578808099962771,1
3479,104,Larynx,Left iTBS,Tone,Noise,48,2,1,0.665482599986717,1
3480,104,Larynx,Left iTBS,Tone,Noise,49,1,1,0.6269042000640179,1
3481,104,Larynx,Left iTBS,Tone,Noise,50,4,0,1.1590963999042299,1
3482,104,Larynx,Left iTBS,Tone,Noise,51,5,1,0.5831971999723461,1
3483,104,Larynx,Left iTBS,Tone,Noise,52,4,0,0.545651699998416,1
3484,104,Larynx,Left iTBS,Tone,Noise,53,3,1,0.684648199938238,1
3485,104,Larynx,Left iTBS,Tone,Noise,54,2,0,0.5735304000554611,1
3486,104,Larynx,Left iTBS,Tone,Noise,55,5,1,0.5274407999822871,1
3487,104,Larynx,Left iTBS,Tone,Noise,56,4,1,0.571003300021403,1
3488,104,Larynx,Left iTBS,Tone,Noise,57,2,0,0.5001644000876689,1
3489,104,Larynx,Left iTBS,Tone,Noise,58,3,0,0.529321899986826,1
3490,104,Larynx,Left iTBS,Tone,Noise,59,2,0,0.506457000039518,1
3491,104,Larynx,Left iTBS,Tone,Noise,60,1,1,0.5576157999457789,1
3492,104,Larynx,Left iTBS,Tone,Noise,61,2,0,0.5425089000491429,1
3493,104,Larynx,Left iTBS,Tone,Noise,62,4,0,0.63676070002839,1
3494,104,Larynx,Left iTBS,Tone,Noise,63,1,0,0.687934100045823,1
3495,104,Larynx,Left iTBS,Tone,Noise,64,4,1,0.782373700058088,1
3496,104,Larynx,Left iTBS,Tone,Noise,65,4,0,0.906177600030787,1
3497,104,Larynx,Left iTBS,Tone,Noise,66,2,0,0.833175500039943,1
3498,104,Larynx,Left iTBS,Tone,Noise,67,3,1,0.53248649998568,1
3499,104,Larynx,Left iTBS,Tone,Noise,68,5,0,0.7408206999534741,1
3500,104,Larynx,Left iTBS,Tone,Noise,69,2,0,0.7253964999690649,1
3501,104,Larynx,Left iTBS,Tone,Noise,70,5,1,0.5436611999757589,1
3502,104,Larynx,Left iTBS,Tone,Noise,71,3,1,0.5626610000617801,1
3503,104,Larynx,Left iTBS,Tone,Noise,72,5,0,0.598109300015494,1
3504,104,Larynx,Left iTBS,Tone,Noise,73,3,0,0.60033669997938,1
3505,104,Larynx,Left iTBS,Tone,Noise,74,4,1,0.592321999953128,1
3506,104,Larynx,Left iTBS,Tone,Noise,75,4,0,0.7604748000158,1
3507,104,Larynx,Left iTBS,Tone,Noise,76,3,0,0.578462600009516,1
3508,104,Larynx,Left iTBS,Tone,Noise,77,1,0,0.563975799945183,1
3509,104,Larynx,Left iTBS,Tone,Noise,78,3,0,0.6583675999427211,1
3510,104,Larynx,Left iTBS,Tone,Noise,79,2,0,0.577978499932215,1
3511,104,Larynx,Left iTBS,Tone,Noise,80,3,1,0.630859600030817,1
3512,104,Larynx,Left iTBS,Tone,Noise,81,1,0,0.736231499933638,1
3513,104,Larynx,Left iTBS,Tone,Noise,82,5,0,0.587320000049658,1
3514,104,Larynx,Left iTBS,Tone,Noise,83,5,0,0.747750499984249,1
3515,104,Larynx,Left iTBS,Tone,Noise,84,2,1,0.658979100058787,1
3516,104,Larynx,Left iTBS,Tone,Noise,85,2,1,0.63047460000962,1
3517,104,Larynx,Left iTBS,Tone,Noise,86,4,1,0.563436800031923,1
3518,104,Larynx,Left iTBS,Tone,Noise,87,4,1,0.39068099996074995,1
3519,104,Larynx,Left iTBS,Tone,Noise,88,2,1,0.571252700057812,1
3520,104,Larynx,Left iTBS,Tone,Noise,89,2,1,0.821701499982737,1
3521,104,Larynx,Left iTBS,Tone,Noise,90,4,0,0.665485300007276,1
3522,104,Larynx,Left iTBS,Tone,Noise,91,3,0,0.5894545000046489,1
3523,104,Larynx,Left iTBS,Tone,Noise,92,1,0,0.53215030010324,1
3524,104,Larynx,Left iTBS,Tone,Noise,93,2,0,0.594268499989994,1
3525,104,Larynx,Left iTBS,Tone,Noise,94,3,0,0.730010199942626,1
3526,104,Larynx,Left iTBS,Tone,Noise,95,3,0,0.5050498000346121,1
3527,104,Larynx,Left iTBS,Tone,Noise,96,4,0,0.471439799992368,1
3528,104,Larynx,Left iTBS,Tone,Noise,97,3,0,0.7533628999954091,1
3529,104,Larynx,Left iTBS,Tone,Noise,98,4,1,0.522919000010006,1
3530,104,Larynx,Left iTBS,Tone,Noise,99,2,0,0.5504791999701409,1
3531,104,Larynx,Left iTBS,Tone,Noise,100,1,0,0.47588980000000397,1
3532,104,Larynx,Left iTBS,Tone,Noise,101,3,1,0.582784399972297,1
3533,104,Larynx,Left iTBS,Tone,Noise,102,3,0,0.696776099968702,1
3534,104,Larynx,Left iTBS,Tone,Noise,103,5,0,0.566357800038531,1
3535,104,Larynx,Left iTBS,Tone,Noise,104,5,1,0.699702500016429,1
3536,104,Larynx,Left iTBS,Tone,Noise,105,5,0,0.778911800007336,1
3537,104,Larynx,Left iTBS,Tone,Noise,106,1,0,0.5868283000309019,1
3538,104,Larynx,Left iTBS,Tone,Noise,107,4,0,0.665019200067036,1
3539,104,Larynx,Left iTBS,Tone,Noise,108,3,0,0.685037199989893,1
3540,104,Larynx,Left iTBS,Tone,Noise,109,1,0,0.791823799954727,1
3541,104,Larynx,Left iTBS,Tone,Noise,110,3,1,0.560269400011748,1
3542,104,Larynx,Left iTBS,Tone,Noise,111,1,0,0.612037700018846,1
3543,104,Larynx,Left iTBS,Tone,Noise,112,2,0,0.6861174000659959,1
3544,104,Larynx,Left iTBS,Tone,Noise,113,4,0,0.673186200088821,1
3545,104,Larynx,Left iTBS,Tone,Noise,114,5,0,0.6161479000002149,1
3546,104,Larynx,Left iTBS,Tone,Noise,115,3,0,0.80513009999413,1
3547,104,Larynx,Left iTBS,Tone,Noise,116,3,0,0.719608500017785,1
3548,104,Larynx,Left iTBS,Tone,Noise,117,4,1,0.765843199915253,1
3549,104,Larynx,Left iTBS,Tone,Noise,118,2,1,0.5181181000079961,1
3550,104,Larynx,Left iTBS,Tone,Noise,119,2,1,0.5719198000151661,1
3551,104,Larynx,Left iTBS,Tone,Noise,120,5,0,0.6769785000942651,1
3552,104,Larynx,Left iTBS,Tone,Noise,121,5,0,0.566738099907525,1
3553,104,Larynx,Left iTBS,Tone,Noise,122,5,0,0.5742849999805911,1
3554,104,Larynx,Left iTBS,Tone,Noise,123,3,0,0.5729003000305971,1
3555,104,Larynx,Left iTBS,Tone,Noise,124,1,0,0.687662700074725,1
3556,104,Larynx,Left iTBS,Tone,Noise,125,5,1,0.5647525999229399,1
3557,104,Larynx,Left iTBS,Tone,Noise,126,3,0,0.6159309999784449,1
3558,104,Larynx,Left iTBS,Tone,Noise,127,3,0,0.536119400057942,1
3559,104,Larynx,Left iTBS,Tone,Noise,128,4,1,0.580144600011408,1
3560,104,Larynx,Left iTBS,Tone,Noise,129,4,0,0.5965865999460219,1
3561,104,Larynx,Left iTBS,Tone,Noise,130,4,1,0.634167700074613,1
3562,104,Larynx,Left iTBS,Tone,Noise,131,2,0,0.722828099969774,1
3563,104,Larynx,Left iTBS,Tone,Noise,132,4,0,0.6176802000263709,1
3564,104,Larynx,Left iTBS,Tone,Noise,133,1,0,0.699800500064157,1
3565,104,Larynx,Left iTBS,Tone,Noise,134,1,0,0.734522499958985,1
3566,104,Larynx,Left iTBS,Tone,Noise,135,1,0,0.782299200072885,1
3567,104,Larynx,Left iTBS,Tone,Noise,136,4,1,0.60903639998287,1
3568,104,Larynx,Left iTBS,Tone,Noise,137,4,0,0.6033482999773699,1
3569,104,Larynx,Left iTBS,Tone,Noise,138,3,0,0.5613510999828579,1
3570,104,Larynx,Left iTBS,Tone,Noise,139,3,1,0.584846499958076,1
3571,104,Larynx,Left iTBS,Tone,Noise,140,3,0,0.6803178000263871,1
3572,104,Larynx,Left iTBS,Tone,Noise,141,3,0,0.649749099975452,1
3573,104,Larynx,Left iTBS,Tone,Noise,142,1,1,0.619883200037293,1
3574,104,Larynx,Left iTBS,Tone,Noise,143,3,0,0.6319166000466789,1
3575,104,Larynx,Left iTBS,Tone,Noise,144,4,0,0.566485699964687,1
3576,104,Larynx,Left iTBS,Tone,Noise,145,2,0,0.641303599928506,1
3577,104,Larynx,Left iTBS,Tone,Noise,146,2,0,0.6466076000360771,1
3578,104,Larynx,Left iTBS,Tone,Noise,147,4,0,0.5611727000214161,1
3579,104,Larynx,Left iTBS,Tone,Noise,148,2,1,0.605015599983744,1
3580,104,Larynx,Left iTBS,Tone,Noise,149,2,0,0.48450820008292794,1
3581,104,Larynx,Left iTBS,Tone,Noise,150,3,0,0.5715588999446479,1
3582,104,Larynx,Left iTBS,Tone,Noise,151,3,1,0.657042599981651,1
3583,104,Larynx,Left iTBS,Tone,Noise,152,3,0,0.6203921000706031,1
3584,104,Larynx,Left iTBS,Tone,Noise,153,5,0,0.50504339998588,1
3585,104,Larynx,Left iTBS,Tone,Noise,154,2,1,0.6263248999603089,1
3586,104,Larynx,Left iTBS,Tone,Noise,155,5,1,0.468042999971658,1
3587,104,Larynx,Left iTBS,Tone,Noise,156,1,0,0.52439619996585,1
5928,104,Larynx,Sham,Tone,Noise,1,4,0,0.721078100032173,1
5929,104,Larynx,Sham,Tone,Noise,2,2,0,0.48483380000106996,1
5930,104,Larynx,Sham,Tone,Noise,3,4,1,0.5731131999636999,1
5931,104,Larynx,Sham,Tone,Noise,4,1,0,0.530742200033274,1
5932,104,Larynx,Sham,Tone,Noise,5,1,0,0.557072499999776,1
5933,104,Larynx,Sham,Tone,Noise,6,3,0,0.544112699979451,1
5934,104,Larynx,Sham,Tone,Noise,7,2,0,0.543277999968268,1
5935,104,Larynx,Sham,Tone,Noise,8,2,1,0.526052800007164,1
5936,104,Larynx,Sham,Tone,Noise,9,2,0,0.5726001999573779,1
5937,104,Larynx,Sham,Tone,Noise,10,2,0,0.565620500012301,1
5938,104,Larynx,Sham,Tone,Noise,11,4,0,0.503494700009469,1
5939,104,Larynx,Sham,Tone,Noise,12,2,0,0.604114899993874,1
5940,104,Larynx,Sham,Tone,Noise,13,3,0,0.5756124000181441,1
5941,104,Larynx,Sham,Tone,Noise,14,3,0,0.681123099988326,1
5942,104,Larynx,Sham,Tone,Noise,15,3,0,0.5594810000038709,1
5943,104,Larynx,Sham,Tone,Noise,16,1,0,0.5441355999791989,1
5944,104,Larynx,Sham,Tone,Noise,17,4,1,0.5911444000084879,1
5945,104,Larynx,Sham,Tone,Noise,18,5,0,0.6633961000479761,1
5946,104,Larynx,Sham,Tone,Noise,19,4,1,0.5838650999939999,1
5947,104,Larynx,Sham,Tone,Noise,20,5,0,0.7384013999835591,1
5948,104,Larynx,Sham,Tone,Noise,21,3,0,0.678178699978162,1
5949,104,Larynx,Sham,Tone,Noise,22,1,1,0.5476763999904509,1
5950,104,Larynx,Sham,Tone,Noise,23,3,1,0.625986099999864,1
5951,104,Larynx,Sham,Tone,Noise,24,1,1,0.582499500014819,1
5952,104,Larynx,Sham,Tone,Noise,25,3,1,0.8342295000329609,1
5953,104,Larynx,Sham,Tone,Noise,26,5,0,0.5506119999918161,1
5954,104,Larynx,Sham,Tone,Noise,27,5,0,0.56515420001233,1
5955,104,Larynx,Sham,Tone,Noise,28,4,0,0.5348902000114321,1
5956,104,Larynx,Sham,Tone,Noise,29,3,0,0.567466799984686,1
5957,104,Larynx,Sham,Tone,Noise,30,3,1,0.559918400016613,1
5958,104,Larynx,Sham,Tone,Noise,31,2,0,0.557169499981683,1
5959,104,Larynx,Sham,Tone,Noise,32,1,0,0.74911279999651,1
5960,104,Larynx,Sham,Tone,Noise,33,5,0,0.6357098000007679,1
5961,104,Larynx,Sham,Tone,Noise,34,5,0,0.585460999980569,1
5962,104,Larynx,Sham,Tone,Noise,35,4,1,0.568911100039259,1
5963,104,Larynx,Sham,Tone,Noise,36,3,1,0.564573400013614,1
5964,104,Larynx,Sham,Tone,Noise,37,3,1,0.574534600018524,1
5965,104,Larynx,Sham,Tone,Noise,38,4,1,0.657987700018566,1
5966,104,Larynx,Sham,Tone,Noise,39,2,0,0.5614317999570629,1
5967,104,Larynx,Sham,Tone,Noise,40,3,1,0.665267900039908,1
5968,104,Larynx,Sham,Tone,Noise,41,4,0,0.73318930005189,1
5969,104,Larynx,Sham,Tone,Noise,42,2,0,0.607244100014213,1
5970,104,Larynx,Sham,Tone,Noise,43,5,0,0.541152199963108,1
5971,104,Larynx,Sham,Tone,Noise,44,2,0,0.665589899988845,1
5972,104,Larynx,Sham,Tone,Noise,45,3,1,0.77681999997003,1
5973,104,Larynx,Sham,Tone,Noise,46,2,1,0.44204870000248797,1
5974,104,Larynx,Sham,Tone,Noise,47,5,1,0.537310299987439,1
5975,104,Larynx,Sham,Tone,Noise,48,1,1,0.6422468999517149,1
5976,104,Larynx,Sham,Tone,Noise,49,3,0,0.565530100022443,1
5977,104,Larynx,Sham,Tone,Noise,50,4,0,0.49788430001353795,1
5978,104,Larynx,Sham,Tone,Noise,51,3,0,0.45193039998412105,1
5979,104,Larynx,Sham,Tone,Noise,52,5,0,0.437437299988233,1
5980,104,Larynx,Sham,Tone,Noise,53,4,0,0.747971799981315,1
5981,104,Larynx,Sham,Tone,Noise,54,4,1,0.530940999975428,1
5982,104,Larynx,Sham,Tone,Noise,55,2,1,0.47309549996862205,1
5983,104,Larynx,Sham,Tone,Noise,56,4,0,0.537622400035616,1
5984,104,Larynx,Sham,Tone,Noise,57,3,0,0.492862300015986,1
5985,104,Larynx,Sham,Tone,Noise,58,1,0,0.47359499998856297,1
5986,104,Larynx,Sham,Tone,Noise,59,2,0,0.490723899973091,1
5987,104,Larynx,Sham,Tone,Noise,60,3,1,0.496119900024496,1
5988,104,Larynx,Sham,Tone,Noise,61,5,1,0.6845700000412761,1
5989,104,Larynx,Sham,Tone,Noise,62,4,0,0.6844191999989561,1
5990,104,Larynx,Sham,Tone,Noise,63,1,0,0.6096736000035891,1
5991,104,Larynx,Sham,Tone,Noise,64,5,1,0.49231960001634395,1
5992,104,Larynx,Sham,Tone,Noise,65,2,1,0.452869299973827,1
5993,104,Larynx,Sham,Tone,Noise,66,3,0,0.545471900026314,1
5994,104,Larynx,Sham,Tone,Noise,67,1,1,0.47453480004333004,1
5995,104,Larynx,Sham,Tone,Noise,68,4,0,0.561209699953906,1
5996,104,Larynx,Sham,Tone,Noise,69,1,0,0.6048969000112271,1
5997,104,Larynx,Sham,Tone,Noise,70,1,1,0.49374850001186105,1
5998,104,Larynx,Sham,Tone,Noise,71,3,1,0.473354799964,1
5999,104,Larynx,Sham,Tone,Noise,72,5,0,0.579075700021349,1
6000,104,Larynx,Sham,Tone,Noise,73,2,0,0.3917685000342321,1
6001,104,Larynx,Sham,Tone,Noise,74,4,0,0.543305600003805,1
6002,104,Larynx,Sham,Tone,Noise,75,2,0,0.431050800019875,1
6003,104,Larynx,Sham,Tone,Noise,76,3,0,0.533058500033803,1
6004,104,Larynx,Sham,Tone,Noise,77,3,0,0.6005571999703531,1
6005,104,Larynx,Sham,Tone,Noise,78,3,1,0.592700000037439,1
6006,104,Larynx,Sham,Tone,Noise,79,2,1,0.498178099980578,1
6007,104,Larynx,Sham,Tone,Noise,80,4,1,0.602714899985585,1
6008,104,Larynx,Sham,Tone,Noise,81,4,0,0.47929869999643393,1
6009,104,Larynx,Sham,Tone,Noise,82,2,0,0.46527829999104103,1
6010,104,Larynx,Sham,Tone,Noise,83,3,0,0.48799880000296997,1
6011,104,Larynx,Sham,Tone,Noise,84,3,0,0.4458218999789099,1
6012,104,Larynx,Sham,Tone,Noise,85,1,0,0.48976989998482207,1
6013,104,Larynx,Sham,Tone,Noise,86,4,1,0.5404419999686071,1
6014,104,Larynx,Sham,Tone,Noise,87,3,1,0.4778309999965129,1
6015,104,Larynx,Sham,Tone,Noise,88,2,1,0.716975499992259,1
6016,104,Larynx,Sham,Tone,Noise,89,5,0,0.5222041999804791,1
6017,104,Larynx,Sham,Tone,Noise,90,1,0,0.47537200001534097,1
6018,104,Larynx,Sham,Tone,Noise,91,5,0,0.45858600002247796,1
6019,104,Larynx,Sham,Tone,Noise,92,4,0,0.540820199996233,1
6020,104,Larynx,Sham,Tone,Noise,93,3,0,0.48614469997119203,1
6021,104,Larynx,Sham,Tone,Noise,94,1,1,0.4814085999969389,1
6022,104,Larynx,Sham,Tone,Noise,95,5,1,0.55114420002792,1
6023,104,Larynx,Sham,Tone,Noise,96,3,0,0.668481400003657,1
6024,104,Larynx,Sham,Tone,Noise,97,4,0,0.521411299996544,1
6025,104,Larynx,Sham,Tone,Noise,98,3,0,0.540208399994299,1
6026,104,Larynx,Sham,Tone,Noise,99,2,0,0.744847199996002,1
6027,104,Larynx,Sham,Tone,Noise,100,3,0,0.474689599999692,1
6028,104,Larynx,Sham,Tone,Noise,101,3,0,0.41341410001041395,1
6029,104,Larynx,Sham,Tone,Noise,102,2,0,0.4911456999834629,1
6030,104,Larynx,Sham,Tone,Noise,103,5,0,0.47191129997372605,1
6031,104,Larynx,Sham,Tone,Noise,104,5,1,0.47046559996670095,1
6032,104,Larynx,Sham,Tone,Noise,105,1,0,0.560421600006521,1
6033,104,Larynx,Sham,Tone,Noise,106,3,1,0.5007881000055929,1
6034,104,Larynx,Sham,Tone,Noise,107,4,0,0.601712499978021,1
6035,104,Larynx,Sham,Tone,Noise,108,2,1,0.509959299990442,1
6036,104,Larynx,Sham,Tone,Noise,109,3,1,0.52119749999838,1
6037,104,Larynx,Sham,Tone,Noise,110,3,1,0.44149930001003707,1
6038,104,Larynx,Sham,Tone,Noise,111,2,1,0.5515311000053771,1
6039,104,Larynx,Sham,Tone,Noise,112,1,0,0.6170075000263749,1
6040,104,Larynx,Sham,Tone,Noise,113,4,1,0.46622520004166296,1
6041,104,Larynx,Sham,Tone,Noise,114,5,0,0.495466399996076,1
6042,104,Larynx,Sham,Tone,Noise,115,1,1,0.403656199981924,1
6043,104,Larynx,Sham,Tone,Noise,116,2,0,0.7167495000176128,1
6044,104,Larynx,Sham,Tone,Noise,117,4,0,0.500442199991085,1
6045,104,Larynx,Sham,Tone,Noise,118,3,1,0.466377799981274,1
6046,104,Larynx,Sham,Tone,Noise,119,4,1,0.5511476999963629,1
6047,104,Larynx,Sham,Tone,Noise,120,2,1,0.470367399975657,1
6048,104,Larynx,Sham,Tone,Noise,121,1,0,0.601513499976136,1
6049,104,Larynx,Sham,Tone,Noise,122,1,1,0.735028699971735,1
6050,104,Larynx,Sham,Tone,Noise,123,3,1,0.538167499995325,1
6051,104,Larynx,Sham,Tone,Noise,124,3,0,0.6073021999909539,1
6052,104,Larynx,Sham,Tone,Noise,125,5,1,0.568984500016086,1
6053,104,Larynx,Sham,Tone,Noise,126,5,0,0.513225500006229,1
6054,104,Larynx,Sham,Tone,Noise,127,3,0,0.736149900010787,1
6055,104,Larynx,Sham,Tone,Noise,128,3,1,0.5280663000303321,1
6056,104,Larynx,Sham,Tone,Noise,129,3,1,0.5515596999903211,1
6057,104,Larynx,Sham,Tone,Noise,130,4,1,0.625569799973164,1
6058,104,Larynx,Sham,Tone,Noise,131,2,0,0.6369198999600489,1
6059,104,Larynx,Sham,Tone,Noise,132,3,1,0.501542199985124,1
6060,104,Larynx,Sham,Tone,Noise,133,4,1,0.539637000008952,1
6061,104,Larynx,Sham,Tone,Noise,134,5,0,0.620336699998006,1
6062,104,Larynx,Sham,Tone,Noise,135,4,1,0.580375500023365,1
6063,104,Larynx,Sham,Tone,Noise,136,5,1,0.683336600020994,1
6064,104,Larynx,Sham,Tone,Noise,137,3,0,0.6495159000041889,1
6065,104,Larynx,Sham,Tone,Noise,138,2,1,0.5070576999569311,1
6066,104,Larynx,Sham,Tone,Noise,139,3,1,0.709250800020527,1
6067,104,Larynx,Sham,Tone,Noise,140,4,0,0.612509300000966,1
6068,104,Larynx,Sham,Tone,Noise,141,1,0,0.535696999984793,1
6069,104,Larynx,Sham,Tone,Noise,142,1,0,0.6090456999954771,1
6070,104,Larynx,Sham,Tone,Noise,143,2,0,0.538134300033562,1
6071,104,Larynx,Sham,Tone,Noise,144,2,1,0.5248566000373099,1
6072,104,Larynx,Sham,Tone,Noise,145,5,1,0.7452599999960509,1
6073,104,Larynx,Sham,Tone,Noise,146,4,1,0.5981716000242161,1
6074,104,Larynx,Sham,Tone,Noise,147,2,0,0.604396100039594,1
6075,104,Larynx,Sham,Tone,Noise,148,4,0,0.615038499992806,1
6076,104,Larynx,Sham,Tone,Noise,149,2,0,0.473287599976175,1
6077,104,Larynx,Sham,Tone,Noise,150,3,0,0.585076400020625,1
6078,104,Larynx,Sham,Tone,Noise,151,1,0,0.503993599966634,1
6079,104,Larynx,Sham,Tone,Noise,152,1,0,0.5577776000136511,1
6080,104,Larynx,Sham,Tone,Noise,153,3,1,0.543309099972248,1
6081,104,Larynx,Sham,Tone,Noise,154,4,0,0.6660541000310329,1
6082,104,Larynx,Sham,Tone,Noise,155,2,0,0.660035100008827,1
6083,104,Larynx,Sham,Tone,Noise,156,5,0,0.5925278999493461,1
6552,123,Larynx,Left iTBS,Tone,Noise,1,4,1,1.20159039999999,1
6553,123,Larynx,Left iTBS,Tone,Noise,2,2,1,0.669041699991794,1
6554,123,Larynx,Left iTBS,Tone,Noise,3,4,1,0.912092800004757,1
6555,123,Larynx,Left iTBS,Tone,Noise,4,3,1,0.910634400002891,1
6556,123,Larynx,Left iTBS,Tone,Noise,5,2,1,0.8735638999933142,1
6557,123,Larynx,Left iTBS,Tone,Noise,6,3,1,0.9530752999999091,1
6558,123,Larynx,Left iTBS,Tone,Noise,7,5,1,0.6716698000091129,1
6559,123,Larynx,Left iTBS,Tone,Noise,8,1,0,0.60410279998905,1
6560,123,Larynx,Left iTBS,Tone,Noise,9,2,0,0.602907199994661,1
6561,123,Larynx,Left iTBS,Tone,Noise,10,3,0,0.6808228000008969,1
6562,123,Larynx,Left iTBS,Tone,Noise,11,4,1,0.482981900000595,1
6563,123,Larynx,Left iTBS,Tone,Noise,12,3,1,0.46822310000425205,1
6564,123,Larynx,Left iTBS,Tone,Noise,13,5,1,0.39533330000995204,1
6565,123,Larynx,Left iTBS,Tone,Noise,14,3,1,0.37803519998851703,1
6566,123,Larynx,Left iTBS,Tone,Noise,15,4,1,0.431810099995346,1
6567,123,Larynx,Left iTBS,Tone,Noise,16,1,1,0.41812190000200605,1
6568,123,Larynx,Left iTBS,Tone,Noise,17,1,0,0.567196599993622,1
6569,123,Larynx,Left iTBS,Tone,Noise,18,1,0,0.561952400006703,1
6570,123,Larynx,Left iTBS,Tone,Noise,19,5,1,0.422797199993511,1
6571,123,Larynx,Left iTBS,Tone,Noise,20,3,1,0.36790719999407895,1
6572,123,Larynx,Left iTBS,Tone,Noise,21,3,1,0.429670900004567,1
6573,123,Larynx,Left iTBS,Tone,Noise,22,2,1,0.53732809999201,1
6574,123,Larynx,Left iTBS,Tone,Noise,23,5,1,0.667975699994713,1
6575,123,Larynx,Left iTBS,Tone,Noise,24,4,1,0.512059599990607,1
6576,123,Larynx,Left iTBS,Tone,Noise,25,2,0,0.642560799999046,1
6577,123,Larynx,Left iTBS,Tone,Noise,26,1,0,0.647875700000441,1
6578,123,Larynx,Left iTBS,Tone,Noise,27,2,0,0.660488699999405,1
6579,123,Larynx,Left iTBS,Tone,Noise,28,3,1,0.618971799995052,1
6580,123,Larynx,Left iTBS,Tone,Noise,29,3,1,0.48131420000572706,1
6581,123,Larynx,Left iTBS,Tone,Noise,30,4,1,0.501114400001825,1
6582,123,Larynx,Left iTBS,Tone,Noise,31,3,1,0.564608500004397,1
6583,123,Larynx,Left iTBS,Tone,Noise,32,5,1,0.501176699995995,1
6584,123,Larynx,Left iTBS,Tone,Noise,33,5,1,0.45641600000090005,1
6585,123,Larynx,Left iTBS,Tone,Noise,34,4,1,0.402048600008129,1
6586,123,Larynx,Left iTBS,Tone,Noise,35,2,1,0.40738850001071103,1
6587,123,Larynx,Left iTBS,Tone,Noise,36,3,1,0.728211299996474,1
6588,123,Larynx,Left iTBS,Tone,Noise,37,4,1,0.5231417999893889,1
6589,123,Larynx,Left iTBS,Tone,Noise,38,1,0,0.620533000008436,1
6590,123,Larynx,Left iTBS,Tone,Noise,39,2,0,0.533595800006879,1
6591,123,Larynx,Left iTBS,Tone,Noise,40,3,1,0.4934159000113139,1
6592,123,Larynx,Left iTBS,Tone,Noise,41,2,0,0.6940822000033221,1
6593,123,Larynx,Left iTBS,Tone,Noise,42,3,1,0.565643499998259,1
6594,123,Larynx,Left iTBS,Tone,Noise,43,5,1,0.45553390000714006,1
6595,123,Larynx,Left iTBS,Tone,Noise,44,5,1,0.36710470000980394,1
6596,123,Larynx,Left iTBS,Tone,Noise,45,5,1,0.38737180001044197,1
6597,123,Larynx,Left iTBS,Tone,Noise,46,2,1,0.425448999987566,1
6598,123,Larynx,Left iTBS,Tone,Noise,47,4,1,0.531189800007269,1
6599,123,Larynx,Left iTBS,Tone,Noise,48,4,1,0.483064200001536,1
6600,123,Larynx,Left iTBS,Tone,Noise,49,1,0,0.6366605000075649,1
6601,123,Larynx,Left iTBS,Tone,Noise,50,3,0,0.675957100000232,1
6602,123,Larynx,Left iTBS,Tone,Noise,51,4,1,0.36500770000566296,1
6603,123,Larynx,Left iTBS,Tone,Noise,52,3,1,0.45759279999765595,1
6604,123,Larynx,Left iTBS,Tone,Noise,53,2,1,0.42302170000039,1
6605,123,Larynx,Left iTBS,Tone,Noise,54,1,0,0.6058860999910389,1
6606,123,Larynx,Left iTBS,Tone,Noise,55,2,1,0.39612489999854,1
6607,123,Larynx,Left iTBS,Tone,Noise,56,2,0,0.42159549999632895,1
6608,123,Larynx,Left iTBS,Tone,Noise,57,1,0,0.494855800003279,1
6609,123,Larynx,Left iTBS,Tone,Noise,58,1,0,0.568736800007173,1
6610,123,Larynx,Left iTBS,Tone,Noise,59,3,1,0.5851647999952551,1
6611,123,Larynx,Left iTBS,Tone,Noise,60,3,1,0.424672699999064,1
6612,123,Larynx,Left iTBS,Tone,Noise,61,5,1,0.41855399998894394,1
6613,123,Larynx,Left iTBS,Tone,Noise,62,1,0,0.6534897999954411,1
6614,123,Larynx,Left iTBS,Tone,Noise,63,3,1,0.586679800006095,1
6615,123,Larynx,Left iTBS,Tone,Noise,64,2,0,0.746394500005408,1
6616,123,Larynx,Left iTBS,Tone,Noise,65,5,1,0.4717719999898689,1
6617,123,Larynx,Left iTBS,Tone,Noise,66,4,1,0.4691429999948011,1
6618,123,Larynx,Left iTBS,Tone,Noise,67,2,1,0.45307230000617,1
6619,123,Larynx,Left iTBS,Tone,Noise,68,4,1,0.592637800000375,1
6620,123,Larynx,Left iTBS,Tone,Noise,69,5,1,0.509647499988205,1
6621,123,Larynx,Left iTBS,Tone,Noise,70,3,0,0.6453179999953139,1
6622,123,Larynx,Left iTBS,Tone,Noise,71,1,0,0.6167531999963101,1
6623,123,Larynx,Left iTBS,Tone,Noise,72,3,1,0.436371799994959,1
6624,123,Larynx,Left iTBS,Tone,Noise,73,3,1,0.487551699989126,1
6625,123,Larynx,Left iTBS,Tone,Noise,74,4,1,0.646699999997509,1
6626,123,Larynx,Left iTBS,Tone,Noise,75,4,1,0.531950100004906,1
6627,123,Larynx,Left iTBS,Tone,Noise,76,4,1,0.4808372000115921,1
6628,123,Larynx,Left iTBS,Tone,Noise,77,2,0,0.657689399988158,1
6629,123,Larynx,Left iTBS,Tone,Noise,78,3,1,0.468660699989414,1
6630,123,Larynx,Left iTBS,Tone,Noise,79,3,1,0.473768900003051,1
6631,123,Larynx,Left iTBS,Tone,Noise,80,3,1,0.48899059998802796,1
6632,123,Larynx,Left iTBS,Tone,Noise,81,4,1,0.43350719999580195,1
6633,123,Larynx,Left iTBS,Tone,Noise,82,2,1,0.4429055000073279,1
6634,123,Larynx,Left iTBS,Tone,Noise,83,1,0,0.502745500009041,1
6635,123,Larynx,Left iTBS,Tone,Noise,84,3,0,0.694953300000634,1
6636,123,Larynx,Left iTBS,Tone,Noise,85,5,1,0.4815178999997439,1
6637,123,Larynx,Left iTBS,Tone,Noise,86,3,1,0.417973000003258,1
6638,123,Larynx,Left iTBS,Tone,Noise,87,4,1,0.37324100000842,1
6639,123,Larynx,Left iTBS,Tone,Noise,88,2,0,0.689687599995523,1
6640,123,Larynx,Left iTBS,Tone,Noise,89,3,1,0.449762399992323,1
6641,123,Larynx,Left iTBS,Tone,Noise,90,4,1,0.33317420000094,1
6642,123,Larynx,Left iTBS,Tone,Noise,91,3,1,0.31517059999168895,1
6643,123,Larynx,Left iTBS,Tone,Noise,92,1,1,0.36079629999585494,1
6644,123,Larynx,Left iTBS,Tone,Noise,93,2,0,0.422707599995192,1
6645,123,Larynx,Left iTBS,Tone,Noise,94,2,0,0.5004440000047911,1
6646,123,Larynx,Left iTBS,Tone,Noise,95,3,0,0.429351099999622,1
6647,123,Larynx,Left iTBS,Tone,Noise,96,1,0,0.647409700002754,1
6648,123,Larynx,Left iTBS,Tone,Noise,97,1,0,0.7252856999984941,1
6649,123,Larynx,Left iTBS,Tone,Noise,98,4,1,0.5537905999954089,1
6650,123,Larynx,Left iTBS,Tone,Noise,99,1,0,0.6446426000038629,1
6651,123,Larynx,Left iTBS,Tone,Noise,100,5,1,0.506540999995195,1
6652,123,Larynx,Left iTBS,Tone,Noise,101,3,1,0.520202500003506,1
6653,123,Larynx,Left iTBS,Tone,Noise,102,4,1,0.48101109999697705,1
6654,123,Larynx,Left iTBS,Tone,Noise,103,5,1,0.47283210000023207,1
6655,123,Larynx,Left iTBS,Tone,Noise,104,4,1,0.520149899995886,1
6656,123,Larynx,Left iTBS,Tone,Noise,105,2,0,0.650708899993333,1
6657,123,Larynx,Left iTBS,Tone,Noise,106,5,1,0.5880950999999189,1
6658,123,Larynx,Left iTBS,Tone,Noise,107,1,0,0.7465986000024709,1
6659,123,Larynx,Left iTBS,Tone,Noise,108,2,1,0.481182600007742,1
6660,123,Larynx,Left iTBS,Tone,Noise,109,5,1,0.44758710000314794,1
6661,123,Larynx,Left iTBS,Tone,Noise,110,4,1,0.49757870000030396,1
6662,123,Larynx,Left iTBS,Tone,Noise,111,2,0,0.7303564999892841,1
6663,123,Larynx,Left iTBS,Tone,Noise,112,3,0,0.7469872999936341,1
6664,123,Larynx,Left iTBS,Tone,Noise,113,3,0,0.597264700001688,1
6665,123,Larynx,Left iTBS,Tone,Noise,114,5,1,0.538369599991711,1
6666,123,Larynx,Left iTBS,Tone,Noise,115,3,1,0.8792397000070201,1
6667,123,Larynx,Left iTBS,Tone,Noise,116,4,1,0.520534300012514,1
6668,123,Larynx,Left iTBS,Tone,Noise,117,2,0,0.55426649999572,1
6669,123,Larynx,Left iTBS,Tone,Noise,118,5,1,0.3926572000054879,1
6670,123,Larynx,Left iTBS,Tone,Noise,119,3,1,0.501221699989401,1
6671,123,Larynx,Left iTBS,Tone,Noise,120,3,1,0.433899399999063,1
6672,123,Larynx,Left iTBS,Tone,Noise,121,4,1,0.658930199992028,1
6673,123,Larynx,Left iTBS,Tone,Noise,122,3,1,0.548645100003341,1
6674,123,Larynx,Left iTBS,Tone,Noise,123,5,1,0.691721199997119,1
6675,123,Larynx,Left iTBS,Tone,Noise,124,5,1,0.607260999997379,1
6676,123,Larynx,Left iTBS,Tone,Noise,125,1,0,0.7217025999998441,1
6677,123,Larynx,Left iTBS,Tone,Noise,126,4,0,0.50745520000055,1
6678,123,Larynx,Left iTBS,Tone,Noise,127,1,0,0.538878100007423,1
6679,123,Larynx,Left iTBS,Tone,Noise,128,2,0,0.7991697999968891,1
6680,123,Larynx,Left iTBS,Tone,Noise,129,3,0,0.6625590000039671,1
6681,123,Larynx,Left iTBS,Tone,Noise,130,1,0,0.630336400005035,1
6682,123,Larynx,Left iTBS,Tone,Noise,131,1,0,0.6757711000100238,1
6683,123,Larynx,Left iTBS,Tone,Noise,132,5,1,0.47103319999587295,1
6684,123,Larynx,Left iTBS,Tone,Noise,133,3,1,0.359269799999311,1
6685,123,Larynx,Left iTBS,Tone,Noise,134,1,1,0.45671460000448905,1
6686,123,Larynx,Left iTBS,Tone,Noise,135,2,0,0.676532299999963,1
6687,123,Larynx,Left iTBS,Tone,Noise,136,2,0,0.566181700007292,1
6688,123,Larynx,Left iTBS,Tone,Noise,137,3,0,0.477287899993826,1
6689,123,Larynx,Left iTBS,Tone,Noise,138,4,1,0.524806699992041,1
6690,123,Larynx,Left iTBS,Tone,Noise,139,2,0,0.6105619000009029,1
6691,123,Larynx,Left iTBS,Tone,Noise,140,4,1,0.49018459999933794,1
6692,123,Larynx,Left iTBS,Tone,Noise,141,3,1,0.428352299990365,1
6693,123,Larynx,Left iTBS,Tone,Noise,142,1,1,0.555183400007081,1
6694,123,Larynx,Left iTBS,Tone,Noise,143,3,0,0.7288663999934221,1
6695,123,Larynx,Left iTBS,Tone,Noise,144,4,1,0.461381500004791,1
6696,123,Larynx,Left iTBS,Tone,Noise,145,2,1,0.42558489998919,1
6697,123,Larynx,Left iTBS,Tone,Noise,146,2,0,0.9162395000021211,1
6698,123,Larynx,Left iTBS,Tone,Noise,147,2,0,0.7307371999922909,1
6699,123,Larynx,Left iTBS,Tone,Noise,148,2,0,0.7435606000071859,1
6700,123,Larynx,Left iTBS,Tone,Noise,149,5,1,0.7058963000017678,1
6701,123,Larynx,Left iTBS,Tone,Noise,150,4,1,0.46249999999417896,1
6702,123,Larynx,Left iTBS,Tone,Noise,151,3,1,0.492259000006015,1
6703,123,Larynx,Left iTBS,Tone,Noise,152,4,1,0.498128199993516,1
6704,123,Larynx,Left iTBS,Tone,Noise,153,4,1,0.413967400003457,1
6705,123,Larynx,Left iTBS,Tone,Noise,154,3,1,0.501202100000228,1
6706,123,Larynx,Left iTBS,Tone,Noise,155,5,1,0.4573942999995779,1
6707,123,Larynx,Left iTBS,Tone,Noise,156,3,1,0.714794900006382,1
9048,123,Larynx,Sham,Tone,Noise,1,3,0,1.59242689993698,1
9049,123,Larynx,Sham,Tone,Noise,2,4,1,0.696354900021106,1
9050,123,Larynx,Sham,Tone,Noise,3,4,1,0.6506760999327529,1
9051,123,Larynx,Sham,Tone,Noise,4,5,1,0.5549611999886109,1
9052,123,Larynx,Sham,Tone,Noise,5,4,1,0.502827699994668,1
9053,123,Larynx,Sham,Tone,Noise,6,4,0,0.514692299999297,1
9054,123,Larynx,Sham,Tone,Noise,7,5,0,0.49587640003301203,1
9055,123,Larynx,Sham,Tone,Noise,8,5,1,0.622036900022067,1
9056,123,Larynx,Sham,Tone,Noise,9,1,0,0.500369399902411,1
9057,123,Larynx,Sham,Tone,Noise,10,3,1,0.544731800095178,1
9058,123,Larynx,Sham,Tone,Noise,11,5,1,0.496568000060506,1
9059,123,Larynx,Sham,Tone,Noise,12,2,1,0.49257460003718706,1
9060,123,Larynx,Sham,Tone,Noise,13,3,1,0.539122699992731,1
9061,123,Larynx,Sham,Tone,Noise,14,1,0,0.6845943999942391,1
9062,123,Larynx,Sham,Tone,Noise,15,1,0,0.7417686000699181,1
9063,123,Larynx,Sham,Tone,Noise,16,2,0,0.6659100999822839,1
9064,123,Larynx,Sham,Tone,Noise,17,3,1,0.503339300048538,1
9065,123,Larynx,Sham,Tone,Noise,18,1,0,0.786738299997523,1
9066,123,Larynx,Sham,Tone,Noise,19,3,1,0.45768160000443503,1
9067,123,Larynx,Sham,Tone,Noise,20,3,1,0.647278600023128,1
9068,123,Larynx,Sham,Tone,Noise,21,3,1,0.548036399995908,1
9069,123,Larynx,Sham,Tone,Noise,22,4,1,0.5245433000382039,1
9070,123,Larynx,Sham,Tone,Noise,23,4,1,0.42736080009490296,1
9071,123,Larynx,Sham,Tone,Noise,24,5,1,0.49456220003776297,1
9072,123,Larynx,Sham,Tone,Noise,25,3,1,0.462109899963252,1
9073,123,Larynx,Sham,Tone,Noise,26,3,1,0.37458730000071205,1
9074,123,Larynx,Sham,Tone,Noise,27,3,0,0.458560999948531,1
9075,123,Larynx,Sham,Tone,Noise,28,1,0,0.656950399978086,1
9076,123,Larynx,Sham,Tone,Noise,29,4,0,0.6841642999788751,1
9077,123,Larynx,Sham,Tone,Noise,30,2,1,0.383285799995065,1
9078,123,Larynx,Sham,Tone,Noise,31,2,1,0.6298704000655561,1
9079,123,Larynx,Sham,Tone,Noise,32,3,1,0.772824999992736,1
9080,123,Larynx,Sham,Tone,Noise,33,4,1,0.8584556999849159,1
9081,123,Larynx,Sham,Tone,Noise,34,5,1,0.676483100047335,1
9082,123,Larynx,Sham,Tone,Noise,35,2,0,0.629101800033823,1
9083,123,Larynx,Sham,Tone,Noise,36,2,0,0.723731999984011,1
9084,123,Larynx,Sham,Tone,Noise,37,2,1,0.46525400003884004,1
9085,123,Larynx,Sham,Tone,Noise,38,1,1,0.6174186000134799,1
9086,123,Larynx,Sham,Tone,Noise,39,2,0,1.30822440003976,1
9087,123,Larynx,Sham,Tone,Noise,40,4,1,0.5227291000774129,1
9088,123,Larynx,Sham,Tone,Noise,41,3,1,0.48924440005794206,1
9089,123,Larynx,Sham,Tone,Noise,42,4,1,0.657489200006239,1
9090,123,Larynx,Sham,Tone,Noise,43,1,0,0.5936587000032889,1
9091,123,Larynx,Sham,Tone,Noise,44,1,0,0.527335299993865,1
9092,123,Larynx,Sham,Tone,Noise,45,2,0,0.46391739998944104,1
9093,123,Larynx,Sham,Tone,Noise,46,4,0,0.398886000039056,1
9094,123,Larynx,Sham,Tone,Noise,47,4,0,0.659974400070496,1
9095,123,Larynx,Sham,Tone,Noise,48,5,1,0.503399999928661,1
9096,123,Larynx,Sham,Tone,Noise,49,4,1,0.599332300014794,1
9097,123,Larynx,Sham,Tone,Noise,50,2,0,0.6128537999466059,1
9098,123,Larynx,Sham,Tone,Noise,51,1,0,0.46886350004933797,1
9099,123,Larynx,Sham,Tone,Noise,52,3,0,0.49925560003612196,1
9100,123,Larynx,Sham,Tone,Noise,53,5,1,0.46627289999742105,1
9101,123,Larynx,Sham,Tone,Noise,54,2,0,0.62156550004147,1
9102,123,Larynx,Sham,Tone,Noise,55,2,1,0.546625000075437,1
9103,123,Larynx,Sham,Tone,Noise,56,3,0,0.691257999977097,1
9104,123,Larynx,Sham,Tone,Noise,57,5,1,0.5518569999840109,1
9105,123,Larynx,Sham,Tone,Noise,58,3,0,0.551289699971676,1
9106,123,Larynx,Sham,Tone,Noise,59,3,0,0.6538087999215351,1
9107,123,Larynx,Sham,Tone,Noise,60,2,0,0.8248271000338722,1
9108,123,Larynx,Sham,Tone,Noise,61,3,1,0.720619600033388,1
9109,123,Larynx,Sham,Tone,Noise,62,4,1,0.9653513999655842,1
9110,123,Larynx,Sham,Tone,Noise,63,3,1,0.707755799987353,1
9111,123,Larynx,Sham,Tone,Noise,64,5,1,0.49116520001553005,1
9112,123,Larynx,Sham,Tone,Noise,65,3,1,0.49045489996206,1
9113,123,Larynx,Sham,Tone,Noise,66,3,1,0.767231700010598,1
9114,123,Larynx,Sham,Tone,Noise,67,4,1,0.633380900020711,1
9115,123,Larynx,Sham,Tone,Noise,68,1,0,0.7817493000766259,1
9116,123,Larynx,Sham,Tone,Noise,69,3,0,0.6472569999750699,1
9117,123,Larynx,Sham,Tone,Noise,70,5,1,0.5252096999902279,1
9118,123,Larynx,Sham,Tone,Noise,71,3,0,0.651475400081836,1
9119,123,Larynx,Sham,Tone,Noise,72,4,0,0.599002199945971,1
9120,123,Larynx,Sham,Tone,Noise,73,5,1,0.7334603000199421,1
9121,123,Larynx,Sham,Tone,Noise,74,2,0,0.7530368999578059,1
9122,123,Larynx,Sham,Tone,Noise,75,1,0,0.661775600048713,1
9123,123,Larynx,Sham,Tone,Noise,76,2,1,0.704573600087315,1
9124,123,Larynx,Sham,Tone,Noise,77,1,0,0.6961031999671831,1
9125,123,Larynx,Sham,Tone,Noise,78,2,1,0.43373709998559207,1
9126,123,Larynx,Sham,Tone,Noise,79,5,1,0.5139532999601221,1
9127,123,Larynx,Sham,Tone,Noise,80,2,1,1.10844189999625,1
9128,123,Larynx,Sham,Tone,Noise,81,2,1,0.731595000019297,1
9129,123,Larynx,Sham,Tone,Noise,82,2,0,0.652026599971578,1
9130,123,Larynx,Sham,Tone,Noise,83,4,1,0.547824600012973,1
9131,123,Larynx,Sham,Tone,Noise,84,2,0,0.8061599000357091,1
9132,123,Larynx,Sham,Tone,Noise,85,2,0,0.900671100011095,1
9133,123,Larynx,Sham,Tone,Noise,86,1,0,0.655158999958076,1
9134,123,Larynx,Sham,Tone,Noise,87,5,1,0.526103800046258,1
9135,123,Larynx,Sham,Tone,Noise,88,5,1,0.5959061000030489,1
9136,123,Larynx,Sham,Tone,Noise,89,3,0,0.653883000020869,1
9137,123,Larynx,Sham,Tone,Noise,90,3,0,0.8744358000112701,1
9138,123,Larynx,Sham,Tone,Noise,91,3,0,0.6041117999702691,1
9139,123,Larynx,Sham,Tone,Noise,92,4,1,0.42993760004174003,1
9140,123,Larynx,Sham,Tone,Noise,93,4,1,0.4624716000398621,1
9141,123,Larynx,Sham,Tone,Noise,94,5,1,0.6318523000227291,1
9142,123,Larynx,Sham,Tone,Noise,95,4,0,0.6966855000937359,1
9143,123,Larynx,Sham,Tone,Noise,96,5,1,0.612083199899644,1
9144,123,Larynx,Sham,Tone,Noise,97,1,0,0.620558499940671,1
9145,123,Larynx,Sham,Tone,Noise,98,3,1,0.481433999957517,1
9146,123,Larynx,Sham,Tone,Noise,99,1,0,0.674342400045134,1
9147,123,Larynx,Sham,Tone,Noise,100,3,0,0.8513053000206129,1
9148,123,Larynx,Sham,Tone,Noise,101,1,0,0.930136900045909,1
9149,123,Larynx,Sham,Tone,Noise,102,4,1,0.49536770000122493,1
9150,123,Larynx,Sham,Tone,Noise,103,3,0,0.67329389997758,1
9151,123,Larynx,Sham,Tone,Noise,104,4,1,0.386298800003715,1
9152,123,Larynx,Sham,Tone,Noise,105,2,0,0.6475276000564921,1
9153,123,Larynx,Sham,Tone,Noise,106,3,1,0.47133339999709295,1
9154,123,Larynx,Sham,Tone,Noise,107,3,0,0.600107899983414,1
9155,123,Larynx,Sham,Tone,Noise,108,5,1,0.347848600009456,1
9156,123,Larynx,Sham,Tone,Noise,109,3,0,0.5606765000848101,1
9157,123,Larynx,Sham,Tone,Noise,110,2,1,0.526770999887958,1
9158,123,Larynx,Sham,Tone,Noise,111,1,1,0.362408099928871,1
9159,123,Larynx,Sham,Tone,Noise,112,4,1,0.546374200028367,1
9160,123,Larynx,Sham,Tone,Noise,113,3,1,0.6865660999901589,1
9161,123,Larynx,Sham,Tone,Noise,114,4,1,0.4449485000222921,1
9162,123,Larynx,Sham,Tone,Noise,115,1,1,0.423100499901921,1
9163,123,Larynx,Sham,Tone,Noise,116,2,0,0.722834800020792,1
9164,123,Larynx,Sham,Tone,Noise,117,3,0,0.674099000054412,1
9165,123,Larynx,Sham,Tone,Noise,118,1,0,0.592713900026865,1
9166,123,Larynx,Sham,Tone,Noise,119,3,0,1.28377580002416,1
9167,123,Larynx,Sham,Tone,Noise,120,1,1,0.6058401999762281,1
9168,123,Larynx,Sham,Tone,Noise,121,3,1,0.582578300032765,1
9169,123,Larynx,Sham,Tone,Noise,122,2,0,0.735402400023304,1
9170,123,Larynx,Sham,Tone,Noise,123,4,1,0.991035100072622,1
9171,123,Larynx,Sham,Tone,Noise,124,4,1,0.644009899930097,1
9172,123,Larynx,Sham,Tone,Noise,125,3,0,0.788811199949123,1
9173,123,Larynx,Sham,Tone,Noise,126,3,1,1.13433439994697,1
9174,123,Larynx,Sham,Tone,Noise,127,2,1,0.857455600053072,1
9175,123,Larynx,Sham,Tone,Noise,128,4,1,1.02327739994507,1
9176,123,Larynx,Sham,Tone,Noise,129,5,1,1.08631160005461,1
9177,123,Larynx,Sham,Tone,Noise,130,2,0,0.8083162000402808,1
9178,123,Larynx,Sham,Tone,Noise,131,1,0,0.7988149999873709,1
9179,123,Larynx,Sham,Tone,Noise,132,2,1,1.0899779000319498,1
9180,123,Larynx,Sham,Tone,Noise,133,5,1,0.8818035000003871,1
9181,123,Larynx,Sham,Tone,Noise,134,3,0,0.5525511000305411,1
9182,123,Larynx,Sham,Tone,Noise,135,3,0,0.584934400045313,1
9183,123,Larynx,Sham,Tone,Noise,136,3,0,0.4527720999903979,1
9184,123,Larynx,Sham,Tone,Noise,137,2,0,0.446504499996081,1
9185,123,Larynx,Sham,Tone,Noise,138,3,0,0.714068000088446,1
9186,123,Larynx,Sham,Tone,Noise,139,4,1,0.422781799919903,1
9187,123,Larynx,Sham,Tone,Noise,140,3,1,0.44195100001525106,1
9188,123,Larynx,Sham,Tone,Noise,141,4,1,0.386219599982724,1
9189,123,Larynx,Sham,Tone,Noise,142,1,0,0.68636020005215,1
9190,123,Larynx,Sham,Tone,Noise,143,5,1,0.523700600024313,1
9191,123,Larynx,Sham,Tone,Noise,144,2,0,0.6900353999808431,1
9192,123,Larynx,Sham,Tone,Noise,145,3,1,0.421502799959853,1
9193,123,Larynx,Sham,Tone,Noise,146,4,1,0.585607299930416,1
9194,123,Larynx,Sham,Tone,Noise,147,1,1,0.42210299998987505,1
9195,123,Larynx,Sham,Tone,Noise,148,1,1,0.8000739000272009,1
9196,123,Larynx,Sham,Tone,Noise,149,2,0,0.921074600075372,1
9197,123,Larynx,Sham,Tone,Noise,150,5,1,0.585109799983911,1
9198,123,Larynx,Sham,Tone,Noise,151,5,1,0.43919259996619103,1
9199,123,Larynx,Sham,Tone,Noise,152,5,1,0.39200049999635705,1
9200,123,Larynx,Sham,Tone,Noise,153,4,1,0.468368400004692,1
9201,123,Larynx,Sham,Tone,Noise,154,3,0,0.6833885000087321,1
9202,123,Larynx,Sham,Tone,Noise,155,2,0,0.57703909999691,1
9203,123,Larynx,Sham,Tone,Noise,156,4,1,0.5101086000213401,1
9672,139,Larynx,Left iTBS,Tone,Noise,1,3,0,0.956148299999768,1
9673,139,Larynx,Left iTBS,Tone,Noise,2,5,0,0.6973369000043019,1
9674,139,Larynx,Left iTBS,Tone,Noise,3,2,1,0.6216282000095821,1
9675,139,Larynx,Left iTBS,Tone,Noise,4,1,1,0.581455499996082,1
9676,139,Larynx,Left iTBS,Tone,Noise,5,4,1,0.8403970999934242,1
9677,139,Larynx,Left iTBS,Tone,Noise,6,5,0,0.8894647999986771,1
9678,139,Larynx,Left iTBS,Tone,Noise,7,4,0,0.757710000005318,1
9679,139,Larynx,Left iTBS,Tone,Noise,8,3,1,1.00214359999518,1
9680,139,Larynx,Left iTBS,Tone,Noise,9,3,1,0.86252379999496,1
9681,139,Larynx,Left iTBS,Tone,Noise,10,3,0,0.654196800009231,1
9682,139,Larynx,Left iTBS,Tone,Noise,11,4,0,0.573680000001332,1
9683,139,Larynx,Left iTBS,Tone,Noise,12,1,0,0.7273940000013679,1
9684,139,Larynx,Left iTBS,Tone,Noise,13,3,1,0.728360900000553,1
9685,139,Larynx,Left iTBS,Tone,Noise,14,5,1,0.9211230999935649,1
9686,139,Larynx,Left iTBS,Tone,Noise,15,4,0,0.7247452000010529,1
9687,139,Larynx,Left iTBS,Tone,Noise,16,3,1,0.7210956999915649,1
9688,139,Larynx,Left iTBS,Tone,Noise,17,1,0,0.873433000000659,1
9689,139,Larynx,Left iTBS,Tone,Noise,18,5,1,0.76272909999534,1
9690,139,Larynx,Left iTBS,Tone,Noise,19,2,0,0.788069699992775,1
9691,139,Larynx,Left iTBS,Tone,Noise,20,4,0,0.706551299997955,1
9692,139,Larynx,Left iTBS,Tone,Noise,21,4,1,0.7766581000032601,1
9693,139,Larynx,Left iTBS,Tone,Noise,22,4,1,0.830210900006932,1
9694,139,Larynx,Left iTBS,Tone,Noise,23,1,0,0.7050893999985419,1
9695,139,Larynx,Left iTBS,Tone,Noise,24,1,1,1.0083600999933,1
9696,139,Larynx,Left iTBS,Tone,Noise,25,2,0,0.935826500004623,1
9697,139,Larynx,Left iTBS,Tone,Noise,26,3,1,0.7180687000072791,1
9698,139,Larynx,Left iTBS,Tone,Noise,27,3,0,0.796887399992556,1
9699,139,Larynx,Left iTBS,Tone,Noise,28,2,1,1.1755908000050102,1
9700,139,Larynx,Left iTBS,Tone,Noise,29,2,0,0.8553633999981679,1
9701,139,Larynx,Left iTBS,Tone,Noise,30,2,0,0.767477600005805,1
9702,139,Larynx,Left iTBS,Tone,Noise,31,4,1,0.695628299989039,1
9703,139,Larynx,Left iTBS,Tone,Noise,32,2,1,0.6978163000021601,1
9704,139,Larynx,Left iTBS,Tone,Noise,33,1,0,0.578016800005571,1
9705,139,Larynx,Left iTBS,Tone,Noise,34,3,0,0.691447299992433,1
9706,139,Larynx,Left iTBS,Tone,Noise,35,5,1,0.727430800005095,1
9707,139,Larynx,Left iTBS,Tone,Noise,36,5,1,0.590914600004908,1
9708,139,Larynx,Left iTBS,Tone,Noise,37,2,0,0.699816499996814,1
9709,139,Larynx,Left iTBS,Tone,Noise,38,3,0,0.671234900000854,1
9710,139,Larynx,Left iTBS,Tone,Noise,39,3,1,1.02498040000501,1
9711,139,Larynx,Left iTBS,Tone,Noise,40,5,1,0.6665421999932729,1
9712,139,Larynx,Left iTBS,Tone,Noise,41,3,0,0.473426900003687,1
9713,139,Larynx,Left iTBS,Tone,Noise,42,3,0,0.6219370000035269,1
9714,139,Larynx,Left iTBS,Tone,Noise,43,3,1,1.06799820000015,1
9715,139,Larynx,Left iTBS,Tone,Noise,44,4,0,0.771135999995749,1
9716,139,Larynx,Left iTBS,Tone,Noise,45,2,1,0.6713439000013749,1
9717,139,Larynx,Left iTBS,Tone,Noise,46,1,0,0.664058700000169,1
9718,139,Larynx,Left iTBS,Tone,Noise,47,3,1,0.992550499999197,1
9719,139,Larynx,Left iTBS,Tone,Noise,48,5,0,0.8153960999916309,1
9720,139,Larynx,Left iTBS,Tone,Noise,49,4,0,0.6482887000020129,1
9721,139,Larynx,Left iTBS,Tone,Noise,50,1,0,0.8344824999949201,1
9722,139,Larynx,Left iTBS,Tone,Noise,51,4,0,1.34286219999194,1
9723,139,Larynx,Left iTBS,Tone,Noise,52,1,1,0.8454820999904771,1
9724,139,Larynx,Left iTBS,Tone,Noise,53,4,0,0.926559800005634,1
9725,139,Larynx,Left iTBS,Tone,Noise,54,4,1,0.625518999993801,1
9726,139,Larynx,Left iTBS,Tone,Noise,55,4,0,0.762736999997287,1
9727,139,Larynx,Left iTBS,Tone,Noise,56,3,0,0.7490691000130029,1
9728,139,Larynx,Left iTBS,Tone,Noise,57,5,1,0.6091137000039449,1
9729,139,Larynx,Left iTBS,Tone,Noise,58,2,0,0.638968100000056,1
9730,139,Larynx,Left iTBS,Tone,Noise,59,3,0,0.7074007000046549,1
9731,139,Larynx,Left iTBS,Tone,Noise,60,5,1,0.584104199995636,1
9732,139,Larynx,Left iTBS,Tone,Noise,61,3,0,0.784596499986947,1
9733,139,Larynx,Left iTBS,Tone,Noise,62,4,0,0.7219327999919191,1
9734,139,Larynx,Left iTBS,Tone,Noise,63,3,0,1.0425224999926301,1
9735,139,Larynx,Left iTBS,Tone,Noise,64,5,0,0.889267100006691,1
9736,139,Larynx,Left iTBS,Tone,Noise,65,2,0,0.8158313999883829,1
9737,139,Larynx,Left iTBS,Tone,Noise,66,2,0,0.992594800001825,1
9738,139,Larynx,Left iTBS,Tone,Noise,67,3,0,1.06759320000128,1
9739,139,Larynx,Left iTBS,Tone,Noise,68,3,1,1.2308125999989,1
9740,139,Larynx,Left iTBS,Tone,Noise,69,1,0,0.648291099991184,1
9741,139,Larynx,Left iTBS,Tone,Noise,70,2,1,0.66656630000216,1
9742,139,Larynx,Left iTBS,Tone,Noise,71,4,0,0.761849000002258,1
9743,139,Larynx,Left iTBS,Tone,Noise,72,1,0,0.46982899999420596,1
9744,139,Larynx,Left iTBS,Tone,Noise,73,2,0,0.623482299997704,1
9745,139,Larynx,Left iTBS,Tone,Noise,74,2,0,0.747737199999392,1
9746,139,Larynx,Left iTBS,Tone,Noise,75,5,1,0.6542916000034891,1
9747,139,Larynx,Left iTBS,Tone,Noise,76,3,0,0.69886590000533,1
9748,139,Larynx,Left iTBS,Tone,Noise,77,1,0,1.12874099999317,1
9749,139,Larynx,Left iTBS,Tone,Noise,78,2,1,0.7065554000000699,1
9750,139,Larynx,Left iTBS,Tone,Noise,79,4,0,0.8818517000036079,1
9751,139,Larynx,Left iTBS,Tone,Noise,80,4,1,0.741733400005614,1
9752,139,Larynx,Left iTBS,Tone,Noise,81,1,0,0.622021399991354,1
9753,139,Larynx,Left iTBS,Tone,Noise,82,5,0,0.8223342999990558,1
9754,139,Larynx,Left iTBS,Tone,Noise,83,5,0,0.9881718999968141,1
9755,139,Larynx,Left iTBS,Tone,Noise,84,4,0,1.17627289998927,1
9756,139,Larynx,Left iTBS,Tone,Noise,85,2,0,1.0109174999961401,1
9757,139,Larynx,Left iTBS,Tone,Noise,86,3,0,0.7423141000035679,1
9758,139,Larynx,Left iTBS,Tone,Noise,87,3,0,1.05101670000295,1
9759,139,Larynx,Left iTBS,Tone,Noise,88,4,0,0.8056494000047679,1
9760,139,Larynx,Left iTBS,Tone,Noise,89,2,1,0.7765691999957199,1
9761,139,Larynx,Left iTBS,Tone,Noise,90,4,0,0.619634500006214,1
9762,139,Larynx,Left iTBS,Tone,Noise,91,2,0,0.6859931000071811,1
9763,139,Larynx,Left iTBS,Tone,Noise,92,1,0,1.1966431000037099,1
9764,139,Larynx,Left iTBS,Tone,Noise,93,3,0,0.810075299988966,1
9765,139,Larynx,Left iTBS,Tone,Noise,94,1,0,0.8629951000039001,1
9766,139,Larynx,Left iTBS,Tone,Noise,95,4,0,0.7685639999981501,1
9767,139,Larynx,Left iTBS,Tone,Noise,96,4,0,0.86852240000735,1
9768,139,Larynx,Left iTBS,Tone,Noise,97,2,1,0.62174230000528,1
9769,139,Larynx,Left iTBS,Tone,Noise,98,2,0,0.5859343000047371,1
9770,139,Larynx,Left iTBS,Tone,Noise,99,3,0,0.5969053000007989,1
9771,139,Larynx,Left iTBS,Tone,Noise,100,3,0,0.7688974000047891,1
9772,139,Larynx,Left iTBS,Tone,Noise,101,2,0,0.723510799987707,1
9773,139,Larynx,Left iTBS,Tone,Noise,102,5,1,0.8717894000001251,1
9774,139,Larynx,Left iTBS,Tone,Noise,103,2,0,1.15605560000404,1
9775,139,Larynx,Left iTBS,Tone,Noise,104,3,0,0.660974700003862,1
9776,139,Larynx,Left iTBS,Tone,Noise,105,3,1,0.816603999992367,1
9777,139,Larynx,Left iTBS,Tone,Noise,106,5,1,1.01751099999819,1
9778,139,Larynx,Left iTBS,Tone,Noise,107,5,1,0.988080700000864,1
9779,139,Larynx,Left iTBS,Tone,Noise,108,1,0,0.7422308999957751,1
9780,139,Larynx,Left iTBS,Tone,Noise,109,4,1,0.725990000006277,1
9781,139,Larynx,Left iTBS,Tone,Noise,110,3,0,0.5384782000037379,1
9782,139,Larynx,Left iTBS,Tone,Noise,111,1,0,0.485862200002884,1
9783,139,Larynx,Left iTBS,Tone,Noise,112,3,0,0.9762735999975121,1
9784,139,Larynx,Left iTBS,Tone,Noise,113,5,1,0.683119499997702,1
9785,139,Larynx,Left iTBS,Tone,Noise,114,1,0,0.7253475000034091,1
9786,139,Larynx,Left iTBS,Tone,Noise,115,3,0,0.685023500001989,1
9787,139,Larynx,Left iTBS,Tone,Noise,116,2,0,0.662412999998196,1
9788,139,Larynx,Left iTBS,Tone,Noise,117,3,0,0.6528027999884221,1
9789,139,Larynx,Left iTBS,Tone,Noise,118,2,0,0.9799143999989609,1
9790,139,Larynx,Left iTBS,Tone,Noise,119,2,0,1.0493476999981801,1
9791,139,Larynx,Left iTBS,Tone,Noise,120,1,1,0.721131800004514,1
9792,139,Larynx,Left iTBS,Tone,Noise,121,2,0,0.888674000001629,1
9793,139,Larynx,Left iTBS,Tone,Noise,122,4,1,0.660919999994803,1
9794,139,Larynx,Left iTBS,Tone,Noise,123,3,0,0.7311544999975009,1
9795,139,Larynx,Left iTBS,Tone,Noise,124,3,0,0.8320410000014821,1
9796,139,Larynx,Left iTBS,Tone,Noise,125,1,1,0.7434666999906769,1
9797,139,Larynx,Left iTBS,Tone,Noise,126,3,1,0.607964800001355,1
9798,139,Larynx,Left iTBS,Tone,Noise,127,4,0,0.708007399996859,1
9799,139,Larynx,Left iTBS,Tone,Noise,128,5,0,0.723444999995991,1
9800,139,Larynx,Left iTBS,Tone,Noise,129,3,0,0.9844396999978929,1
9801,139,Larynx,Left iTBS,Tone,Noise,130,3,1,1.17808420000074,1
9802,139,Larynx,Left iTBS,Tone,Noise,131,5,1,1.0236106000084,1
9803,139,Larynx,Left iTBS,Tone,Noise,132,2,0,0.7160309000028059,1
9804,139,Larynx,Left iTBS,Tone,Noise,133,1,0,0.9236894000059691,1
9805,139,Larynx,Left iTBS,Tone,Noise,134,4,0,0.710908099994413,1
9806,139,Larynx,Left iTBS,Tone,Noise,135,1,1,0.618689099996118,1
9807,139,Larynx,Left iTBS,Tone,Noise,136,2,1,0.7872899999929359,1
9808,139,Larynx,Left iTBS,Tone,Noise,137,4,0,0.7409936000040029,1
9809,139,Larynx,Left iTBS,Tone,Noise,138,2,0,0.739095499986433,1
9810,139,Larynx,Left iTBS,Tone,Noise,139,5,1,0.6596411999926199,1
9811,139,Larynx,Left iTBS,Tone,Noise,140,1,1,0.979348900000332,1
9812,139,Larynx,Left iTBS,Tone,Noise,141,4,0,0.573062999988906,1
9813,139,Larynx,Left iTBS,Tone,Noise,142,5,1,0.988403600000311,1
9814,139,Larynx,Left iTBS,Tone,Noise,143,2,0,0.705615200000466,1
9815,139,Larynx,Left iTBS,Tone,Noise,144,3,0,0.7276951000094409,1
9816,139,Larynx,Left iTBS,Tone,Noise,145,5,1,0.9600607000029409,1
9817,139,Larynx,Left iTBS,Tone,Noise,146,3,0,0.849002899994957,1
9818,139,Larynx,Left iTBS,Tone,Noise,147,4,0,0.864988600005745,1
9819,139,Larynx,Left iTBS,Tone,Noise,148,3,0,0.7488864000042671,1
9820,139,Larynx,Left iTBS,Tone,Noise,149,4,0,0.899443899994367,1
9821,139,Larynx,Left iTBS,Tone,Noise,150,1,0,0.821578199989744,1
9822,139,Larynx,Left iTBS,Tone,Noise,151,2,0,0.7494008999929058,1
9823,139,Larynx,Left iTBS,Tone,Noise,152,5,1,0.842138799998793,1
9824,139,Larynx,Left iTBS,Tone,Noise,153,3,1,0.665006399998674,1
9825,139,Larynx,Left iTBS,Tone,Noise,154,4,1,0.8523445000028,1
9826,139,Larynx,Left iTBS,Tone,Noise,155,3,0,0.9554964999988441,1
9827,139,Larynx,Left iTBS,Tone,Noise,156,3,0,0.580271799990442,1
12168,139,Larynx,Sham,Tone,Noise,1,3,0,0.810688900004607,1
12169,139,Larynx,Sham,Tone,Noise,2,4,1,0.718038500002876,1
12170,139,Larynx,Sham,Tone,Noise,3,4,1,0.909734900000331,1
12171,139,Larynx,Sham,Tone,Noise,4,5,0,1.04330669999763,1
12172,139,Larynx,Sham,Tone,Noise,5,4,0,0.8514980000036301,1
12173,139,Larynx,Sham,Tone,Noise,6,4,1,1.41907619999984,1
12174,139,Larynx,Sham,Tone,Noise,7,5,1,1.5482886000027098,1
12175,139,Larynx,Sham,Tone,Noise,8,5,0,0.9204045000005859,1
12176,139,Larynx,Sham,Tone,Noise,9,1,0,0.7910610999970229,1
12177,139,Larynx,Sham,Tone,Noise,10,3,0,1.01730810000299,1
12178,139,Larynx,Sham,Tone,Noise,11,5,1,0.796700700004294,1
12179,139,Larynx,Sham,Tone,Noise,12,2,0,0.857862800003204,1
12180,139,Larynx,Sham,Tone,Noise,13,3,0,1.0595945999957601,1
12181,139,Larynx,Sham,Tone,Noise,14,1,0,0.8723399000009521,1
12182,139,Larynx,Sham,Tone,Noise,15,1,1,1.06623699999909,1
12183,139,Larynx,Sham,Tone,Noise,16,2,0,0.73965550000139,1
12184,139,Larynx,Sham,Tone,Noise,17,3,1,1.0262691000025401,1
12185,139,Larynx,Sham,Tone,Noise,18,1,0,0.728674900004989,1
12186,139,Larynx,Sham,Tone,Noise,19,3,0,0.957001999995555,1
12187,139,Larynx,Sham,Tone,Noise,20,3,1,0.757562200000393,1
12188,139,Larynx,Sham,Tone,Noise,21,3,1,0.7450222000043141,1
12189,139,Larynx,Sham,Tone,Noise,22,4,0,0.835135699999228,1
12190,139,Larynx,Sham,Tone,Noise,23,4,1,0.942692900003749,1
12191,139,Larynx,Sham,Tone,Noise,24,5,0,1.08394480000425,1
12192,139,Larynx,Sham,Tone,Noise,25,3,0,0.810235299999476,1
12193,139,Larynx,Sham,Tone,Noise,26,3,1,0.7293922999961071,1
12194,139,Larynx,Sham,Tone,Noise,27,3,0,0.7133040999979129,1
12195,139,Larynx,Sham,Tone,Noise,28,1,0,0.88699639999686,1
12196,139,Larynx,Sham,Tone,Noise,29,4,1,0.825037700000394,1
12197,139,Larynx,Sham,Tone,Noise,30,2,0,0.8951537999964779,1
12198,139,Larynx,Sham,Tone,Noise,31,2,0,1.18174259999796,1
12199,139,Larynx,Sham,Tone,Noise,32,3,0,1.0989472999935999,1
12200,139,Larynx,Sham,Tone,Noise,33,4,1,0.7725662000011649,1
12201,139,Larynx,Sham,Tone,Noise,34,5,1,0.751824099999794,1
12202,139,Larynx,Sham,Tone,Noise,35,2,0,0.783090099997935,1
12203,139,Larynx,Sham,Tone,Noise,36,2,0,0.7897123000002471,1
12204,139,Larynx,Sham,Tone,Noise,37,2,0,1.0931130000026301,1
12205,139,Larynx,Sham,Tone,Noise,38,1,0,0.905059500000789,1
12206,139,Larynx,Sham,Tone,Noise,39,2,1,0.639854799999739,1
12207,139,Larynx,Sham,Tone,Noise,40,4,1,0.863886599996476,1
12208,139,Larynx,Sham,Tone,Noise,41,3,0,1.0702281000049,1
12209,139,Larynx,Sham,Tone,Noise,42,4,1,0.9901207000002609,1
12210,139,Larynx,Sham,Tone,Noise,43,1,1,0.9285770999995291,1
12211,139,Larynx,Sham,Tone,Noise,44,1,0,0.8552994999990908,1
12212,139,Larynx,Sham,Tone,Noise,45,2,1,1.057624699999,1
12213,139,Larynx,Sham,Tone,Noise,46,4,0,0.9973462999987529,1
12214,139,Larynx,Sham,Tone,Noise,47,4,0,1.00730789999943,1
12215,139,Larynx,Sham,Tone,Noise,48,5,1,1.07650950000243,1
12216,139,Larynx,Sham,Tone,Noise,49,4,1,0.9472391999952379,1
12217,139,Larynx,Sham,Tone,Noise,50,2,0,0.638466500000504,1
12218,139,Larynx,Sham,Tone,Noise,51,1,0,0.583091499996954,1
12219,139,Larynx,Sham,Tone,Noise,52,3,0,0.8790100999976859,1
12220,139,Larynx,Sham,Tone,Noise,53,5,1,1.01021760000003,1
12221,139,Larynx,Sham,Tone,Noise,54,2,0,0.908399799998733,1
12222,139,Larynx,Sham,Tone,Noise,55,2,0,0.7808270000023191,1
12223,139,Larynx,Sham,Tone,Noise,56,3,0,1.13168240000232,1
12224,139,Larynx,Sham,Tone,Noise,57,5,1,0.9853599999987641,1
12225,139,Larynx,Sham,Tone,Noise,58,3,0,0.7930651999995459,1
12226,139,Larynx,Sham,Tone,Noise,59,3,0,0.949514500003716,1
12227,139,Larynx,Sham,Tone,Noise,60,2,0,0.859469900002296,1
12228,139,Larynx,Sham,Tone,Noise,61,3,1,1.14110960000107,1
12229,139,Larynx,Sham,Tone,Noise,62,4,0,1.6055388000022501,1
12230,139,Larynx,Sham,Tone,Noise,63,3,0,0.8835221999979691,1
12231,139,Larynx,Sham,Tone,Noise,64,5,1,0.8448846999963281,1
12232,139,Larynx,Sham,Tone,Noise,65,3,0,0.7849260000002691,1
12233,139,Larynx,Sham,Tone,Noise,66,3,1,1.21015530000295,1
12234,139,Larynx,Sham,Tone,Noise,67,4,0,0.8225803999957859,1
12235,139,Larynx,Sham,Tone,Noise,68,1,0,0.6741909999982449,1
12236,139,Larynx,Sham,Tone,Noise,69,3,0,0.7287930000020421,1
12237,139,Larynx,Sham,Tone,Noise,70,5,1,0.697332100004132,1
12238,139,Larynx,Sham,Tone,Noise,71,3,1,0.903125099997851,1
12239,139,Larynx,Sham,Tone,Noise,72,4,0,0.835960299998987,1
12240,139,Larynx,Sham,Tone,Noise,73,5,0,1.1991995999996998,1
12241,139,Larynx,Sham,Tone,Noise,74,2,0,0.748890599999868,1
12242,139,Larynx,Sham,Tone,Noise,75,1,0,0.69276600000012,1
12243,139,Larynx,Sham,Tone,Noise,76,2,1,1.02053680000245,1
12244,139,Larynx,Sham,Tone,Noise,77,1,0,1.25028490000113,1
12245,139,Larynx,Sham,Tone,Noise,78,2,0,0.724749100001645,1
12246,139,Larynx,Sham,Tone,Noise,79,5,1,0.744789600001241,1
12247,139,Larynx,Sham,Tone,Noise,80,2,0,0.717242899998382,1
12248,139,Larynx,Sham,Tone,Noise,81,2,0,0.7849439000056009,1
12249,139,Larynx,Sham,Tone,Noise,82,2,0,0.7460343999991891,1
12250,139,Larynx,Sham,Tone,Noise,83,4,1,0.975161700000172,1
12251,139,Larynx,Sham,Tone,Noise,84,2,0,0.821195599994098,1
12252,139,Larynx,Sham,Tone,Noise,85,2,0,0.6916142999980369,1
12253,139,Larynx,Sham,Tone,Noise,86,1,0,0.773533400002634,1
12254,139,Larynx,Sham,Tone,Noise,87,5,1,0.8491817000031009,1
12255,139,Larynx,Sham,Tone,Noise,88,5,0,1.00944270000036,1
12256,139,Larynx,Sham,Tone,Noise,89,3,0,0.660029899998335,1
12257,139,Larynx,Sham,Tone,Noise,90,3,1,0.847778600000311,1
12258,139,Larynx,Sham,Tone,Noise,91,3,1,1.2039598999981498,1
12259,139,Larynx,Sham,Tone,Noise,92,4,0,0.779640200002177,1
12260,139,Larynx,Sham,Tone,Noise,93,4,0,0.7495955999984292,1
12261,139,Larynx,Sham,Tone,Noise,94,5,1,1.18319270000211,1
12262,139,Larynx,Sham,Tone,Noise,95,4,0,0.8077592999979971,1
12263,139,Larynx,Sham,Tone,Noise,96,5,1,1.40691009999864,1
12264,139,Larynx,Sham,Tone,Noise,97,1,0,0.7663637999939971,1
12265,139,Larynx,Sham,Tone,Noise,98,3,0,0.7407087000028699,1
12266,139,Larynx,Sham,Tone,Noise,99,1,0,0.619490999997652,1
12267,139,Larynx,Sham,Tone,Noise,100,3,1,0.8080300000001441,1
12268,139,Larynx,Sham,Tone,Noise,101,1,0,0.7505212999967629,1
12269,139,Larynx,Sham,Tone,Noise,102,4,1,0.8550509999986391,1
12270,139,Larynx,Sham,Tone,Noise,103,3,0,0.887167799999588,1
12271,139,Larynx,Sham,Tone,Noise,104,4,0,0.7234344000025891,1
12272,139,Larynx,Sham,Tone,Noise,105,2,1,0.8398143000013081,1
12273,139,Larynx,Sham,Tone,Noise,106,3,1,0.8514958000014301,1
12274,139,Larynx,Sham,Tone,Noise,107,3,0,0.936057099999744,1
12275,139,Larynx,Sham,Tone,Noise,108,5,1,0.7186510000028651,1
12276,139,Larynx,Sham,Tone,Noise,109,3,0,0.934876999999688,1
12277,139,Larynx,Sham,Tone,Noise,110,2,0,0.801466299999447,1
12278,139,Larynx,Sham,Tone,Noise,111,1,0,0.891383000001952,1
12279,139,Larynx,Sham,Tone,Noise,112,4,1,0.882888599997386,1
12280,139,Larynx,Sham,Tone,Noise,113,3,1,1.1039086000018898,1
12281,139,Larynx,Sham,Tone,Noise,114,4,0,0.779413299998851,1
12282,139,Larynx,Sham,Tone,Noise,115,1,0,0.6990575000018001,1
12283,139,Larynx,Sham,Tone,Noise,116,2,0,0.774821899998642,1
12284,139,Larynx,Sham,Tone,Noise,117,3,1,0.908855599998788,1
12285,139,Larynx,Sham,Tone,Noise,118,1,0,1.0903041000056,1
12286,139,Larynx,Sham,Tone,Noise,119,3,1,0.8362828000026641,1
12287,139,Larynx,Sham,Tone,Noise,120,1,0,0.742896399999154,1
12288,139,Larynx,Sham,Tone,Noise,121,3,0,1.28169630000048,1
12289,139,Larynx,Sham,Tone,Noise,122,2,0,1.0184633999961101,1
12290,139,Larynx,Sham,Tone,Noise,123,4,1,0.931550099994638,1
12291,139,Larynx,Sham,Tone,Noise,124,4,1,1.2556497000041398,1
12292,139,Larynx,Sham,Tone,Noise,125,3,0,1.2206468000004,1
12293,139,Larynx,Sham,Tone,Noise,126,3,1,1.06802269999753,1
12294,139,Larynx,Sham,Tone,Noise,127,2,0,0.857729099996504,1
12295,139,Larynx,Sham,Tone,Noise,128,4,0,1.0432154999943999,1
12296,139,Larynx,Sham,Tone,Noise,129,5,1,0.895819600002142,1
12297,139,Larynx,Sham,Tone,Noise,130,2,0,0.8414753999968531,1
12298,139,Larynx,Sham,Tone,Noise,131,1,0,0.9380604000034509,1
12299,139,Larynx,Sham,Tone,Noise,132,2,1,0.889088400006585,1
12300,139,Larynx,Sham,Tone,Noise,133,5,1,0.6716091999987839,1
12301,139,Larynx,Sham,Tone,Noise,134,3,0,0.9116228999992021,1
12302,139,Larynx,Sham,Tone,Noise,135,3,1,0.9085844000001091,1
12303,139,Larynx,Sham,Tone,Noise,136,3,1,1.03023659999599,1
12304,139,Larynx,Sham,Tone,Noise,137,2,0,0.7805515000000011,1
12305,139,Larynx,Sham,Tone,Noise,138,3,0,0.679277700000966,1
12306,139,Larynx,Sham,Tone,Noise,139,4,0,1.0170422999945,1
12307,139,Larynx,Sham,Tone,Noise,140,3,1,0.714733399996476,1
12308,139,Larynx,Sham,Tone,Noise,141,4,0,0.7907124999983349,1
12309,139,Larynx,Sham,Tone,Noise,142,1,0,0.647621599993727,1
12310,139,Larynx,Sham,Tone,Noise,143,5,0,0.787602099997457,1
12311,139,Larynx,Sham,Tone,Noise,144,2,0,1.04560299999866,1
12312,139,Larynx,Sham,Tone,Noise,145,3,0,0.8809715999959742,1
12313,139,Larynx,Sham,Tone,Noise,146,4,0,1.04602180000074,1
12314,139,Larynx,Sham,Tone,Noise,147,1,0,0.9892378000004101,1
12315,139,Larynx,Sham,Tone,Noise,148,1,1,1.15018859999691,1
12316,139,Larynx,Sham,Tone,Noise,149,2,0,0.74352170000202,1
12317,139,Larynx,Sham,Tone,Noise,150,5,1,0.8351035000014241,1
12318,139,Larynx,Sham,Tone,Noise,151,5,0,1.05541059999814,1
12319,139,Larynx,Sham,Tone,Noise,152,5,1,1.00256680000166,1
12320,139,Larynx,Sham,Tone,Noise,153,4,0,1.16127649999544,1
12321,139,Larynx,Sham,Tone,Noise,154,3,0,1.5063815999965302,1
12322,139,Larynx,Sham,Tone,Noise,155,2,1,0.8254742999997691,1
12323,139,Larynx,Sham,Tone,Noise,156,4,0,1.2542466000013501,1
12792,142,Larynx,Left iTBS,Tone,Noise,1,1,0,0.9102168999961578,1
12793,142,Larynx,Left iTBS,Tone,Noise,2,4,0,0.7767473999992941,1
12794,142,Larynx,Left iTBS,Tone,Noise,3,2,0,0.831407999969088,1
12795,142,Larynx,Left iTBS,Tone,Noise,4,3,1,0.603758000012022,1
12796,142,Larynx,Left iTBS,Tone,Noise,5,3,1,0.722536200017203,1
12797,142,Larynx,Left iTBS,Tone,Noise,6,4,0,1.0321428999886801,1
12798,142,Larynx,Left iTBS,Tone,Noise,7,4,1,0.470363700005692,1
12799,142,Larynx,Left iTBS,Tone,Noise,8,5,1,0.592931499995757,1
12800,142,Larynx,Left iTBS,Tone,Noise,9,5,1,0.6245715999975799,1
12801,142,Larynx,Left iTBS,Tone,Noise,10,2,1,1.16017700004159,1
12802,142,Larynx,Left iTBS,Tone,Noise,11,3,0,0.910749699978624,1
12803,142,Larynx,Left iTBS,Tone,Noise,12,2,0,0.831227499991655,1
12804,142,Larynx,Left iTBS,Tone,Noise,13,1,0,0.8008362000109631,1
12805,142,Larynx,Left iTBS,Tone,Noise,14,4,1,0.6889716000296179,1
12806,142,Larynx,Left iTBS,Tone,Noise,15,3,1,0.789073700027075,1
12807,142,Larynx,Left iTBS,Tone,Noise,16,3,0,0.551241900015157,1
12808,142,Larynx,Left iTBS,Tone,Noise,17,2,0,0.725825100031216,1
12809,142,Larynx,Left iTBS,Tone,Noise,18,1,0,0.622835499991197,1
12810,142,Larynx,Left iTBS,Tone,Noise,19,2,1,0.597139800025616,1
12811,142,Larynx,Left iTBS,Tone,Noise,20,1,0,0.965660299989395,1
12812,142,Larynx,Left iTBS,Tone,Noise,21,2,0,0.700278900039848,1
12813,142,Larynx,Left iTBS,Tone,Noise,22,3,1,0.701550099998713,1
12814,142,Larynx,Left iTBS,Tone,Noise,23,3,1,0.5808049000333989,1
12815,142,Larynx,Left iTBS,Tone,Noise,24,1,0,0.7251390999881551,1
12816,142,Larynx,Left iTBS,Tone,Noise,25,3,0,0.931677299959119,1
12817,142,Larynx,Left iTBS,Tone,Noise,26,1,0,0.702165799972136,1
12818,142,Larynx,Left iTBS,Tone,Noise,27,3,1,0.683888699975796,1
12819,142,Larynx,Left iTBS,Tone,Noise,28,5,1,0.734596399997827,1
12820,142,Larynx,Left iTBS,Tone,Noise,29,4,1,0.9760582000017171,1
12821,142,Larynx,Left iTBS,Tone,Noise,30,2,1,0.812089199956972,1
12822,142,Larynx,Left iTBS,Tone,Noise,31,3,0,0.5993041999754499,1
12823,142,Larynx,Left iTBS,Tone,Noise,32,4,1,0.627876599959563,1
12824,142,Larynx,Left iTBS,Tone,Noise,33,5,1,0.734060599992517,1
12825,142,Larynx,Left iTBS,Tone,Noise,34,4,1,0.6814529999974179,1
12826,142,Larynx,Left iTBS,Tone,Noise,35,4,1,0.730655700026546,1
12827,142,Larynx,Left iTBS,Tone,Noise,36,2,0,0.61008860002039,1
12828,142,Larynx,Left iTBS,Tone,Noise,37,3,0,0.47009760001674294,1
12829,142,Larynx,Left iTBS,Tone,Noise,38,5,1,0.60658429999603,1
12830,142,Larynx,Left iTBS,Tone,Noise,39,5,1,0.733866700029466,1
12831,142,Larynx,Left iTBS,Tone,Noise,40,5,1,0.5121839999919761,1
12832,142,Larynx,Left iTBS,Tone,Noise,41,4,1,0.7714719000505279,1
12833,142,Larynx,Left iTBS,Tone,Noise,42,5,1,0.676788099983241,1
12834,142,Larynx,Left iTBS,Tone,Noise,43,1,0,0.49143059999914795,1
12835,142,Larynx,Left iTBS,Tone,Noise,44,3,1,0.7549082000041379,1
12836,142,Larynx,Left iTBS,Tone,Noise,45,2,1,0.82750799995847,1
12837,142,Larynx,Left iTBS,Tone,Noise,46,3,1,0.660209699999541,1
12838,142,Larynx,Left iTBS,Tone,Noise,47,5,1,0.84829280001577,1
12839,142,Larynx,Left iTBS,Tone,Noise,48,2,0,0.58993910002755,1
12840,142,Larynx,Left iTBS,Tone,Noise,49,4,1,0.54782110004453,1
12841,142,Larynx,Left iTBS,Tone,Noise,50,5,1,0.5742233000346461,1
12842,142,Larynx,Left iTBS,Tone,Noise,51,2,0,0.63591999997152,1
12843,142,Larynx,Left iTBS,Tone,Noise,52,2,0,0.763916700030677,1
12844,142,Larynx,Left iTBS,Tone,Noise,53,4,1,0.627122399979271,1
12845,142,Larynx,Left iTBS,Tone,Noise,54,1,0,0.887026500015054,1
12846,142,Larynx,Left iTBS,Tone,Noise,55,3,0,0.7868865000200459,1
12847,142,Larynx,Left iTBS,Tone,Noise,56,3,0,0.781167499953881,1
12848,142,Larynx,Left iTBS,Tone,Noise,57,3,0,0.6086811000132,1
12849,142,Larynx,Left iTBS,Tone,Noise,58,5,1,0.548743200022727,1
12850,142,Larynx,Left iTBS,Tone,Noise,59,2,0,0.7335173999890691,1
12851,142,Larynx,Left iTBS,Tone,Noise,60,1,1,0.7040274000028149,1
12852,142,Larynx,Left iTBS,Tone,Noise,61,2,0,0.6810262000071821,1
12853,142,Larynx,Left iTBS,Tone,Noise,62,4,1,0.5945793999708261,1
12854,142,Larynx,Left iTBS,Tone,Noise,63,3,1,0.8183616999886,1
12855,142,Larynx,Left iTBS,Tone,Noise,64,4,1,0.681075799977407,1
12856,142,Larynx,Left iTBS,Tone,Noise,65,1,0,0.514342800015584,1
12857,142,Larynx,Left iTBS,Tone,Noise,66,5,1,0.8803423999925141,1
12858,142,Larynx,Left iTBS,Tone,Noise,67,1,0,0.609215100004803,1
12859,142,Larynx,Left iTBS,Tone,Noise,68,2,0,0.7115213999641129,1
12860,142,Larynx,Left iTBS,Tone,Noise,69,3,0,0.6656411000294611,1
12861,142,Larynx,Left iTBS,Tone,Noise,70,4,1,0.582405299996026,1
12862,142,Larynx,Left iTBS,Tone,Noise,71,3,1,0.584077599982265,1
12863,142,Larynx,Left iTBS,Tone,Noise,72,1,0,0.672238000028301,1
12864,142,Larynx,Left iTBS,Tone,Noise,73,4,1,0.6264485999709001,1
12865,142,Larynx,Left iTBS,Tone,Noise,74,3,0,0.7159659000462851,1
12866,142,Larynx,Left iTBS,Tone,Noise,75,2,0,0.7498310999944809,1
12867,142,Larynx,Left iTBS,Tone,Noise,76,3,0,0.7150437000091191,1
12868,142,Larynx,Left iTBS,Tone,Noise,77,4,1,0.59291339997435,1
12869,142,Larynx,Left iTBS,Tone,Noise,78,3,1,0.65339180000592,1
12870,142,Larynx,Left iTBS,Tone,Noise,79,4,1,0.7105494000134058,1
12871,142,Larynx,Left iTBS,Tone,Noise,80,2,0,0.5980750999879089,1
12872,142,Larynx,Left iTBS,Tone,Noise,81,2,0,0.5576709000160921,1
12873,142,Larynx,Left iTBS,Tone,Noise,82,3,0,0.7012477000243961,1
12874,142,Larynx,Left iTBS,Tone,Noise,83,3,1,0.673706499976106,1
12875,142,Larynx,Left iTBS,Tone,Noise,84,3,0,0.725537199992687,1
12876,142,Larynx,Left iTBS,Tone,Noise,85,4,1,0.7855740000377409,1
12877,142,Larynx,Left iTBS,Tone,Noise,86,1,0,0.6935879000229761,1
12878,142,Larynx,Left iTBS,Tone,Noise,87,1,0,0.566690800013021,1
12879,142,Larynx,Left iTBS,Tone,Noise,88,2,0,0.748910300026182,1
12880,142,Larynx,Left iTBS,Tone,Noise,89,2,0,0.79771349998191,1
12881,142,Larynx,Left iTBS,Tone,Noise,90,4,1,0.547133399988525,1
12882,142,Larynx,Left iTBS,Tone,Noise,91,5,1,0.5645807000109929,1
12883,142,Larynx,Left iTBS,Tone,Noise,92,5,1,0.795122100040317,1
12884,142,Larynx,Left iTBS,Tone,Noise,93,3,0,0.687483299989253,1
12885,142,Larynx,Left iTBS,Tone,Noise,94,2,0,0.665527300036047,1
12886,142,Larynx,Left iTBS,Tone,Noise,95,4,1,0.7536031000199731,1
12887,142,Larynx,Left iTBS,Tone,Noise,96,1,0,0.7053960000048392,1
12888,142,Larynx,Left iTBS,Tone,Noise,97,1,0,0.6538824000163,1
12889,142,Larynx,Left iTBS,Tone,Noise,98,3,0,0.728215000010096,1
12890,142,Larynx,Left iTBS,Tone,Noise,99,3,1,0.684423200029414,1
12891,142,Larynx,Left iTBS,Tone,Noise,100,2,0,0.715258400014136,1
12892,142,Larynx,Left iTBS,Tone,Noise,101,5,1,0.724256000015885,1
12893,142,Larynx,Left iTBS,Tone,Noise,102,4,1,0.7952271999674849,1
12894,142,Larynx,Left iTBS,Tone,Noise,103,5,1,0.6295487000024879,1
12895,142,Larynx,Left iTBS,Tone,Noise,104,3,0,0.7491643000394109,1
12896,142,Larynx,Left iTBS,Tone,Noise,105,4,0,0.595750700042117,1
12897,142,Larynx,Left iTBS,Tone,Noise,106,3,0,0.6751762999920171,1
12898,142,Larynx,Left iTBS,Tone,Noise,107,1,0,0.714824700029567,1
12899,142,Larynx,Left iTBS,Tone,Noise,108,5,1,0.8457907000556592,1
12900,142,Larynx,Left iTBS,Tone,Noise,109,1,0,0.52253869996639,1
12901,142,Larynx,Left iTBS,Tone,Noise,110,3,1,0.8017177999718109,1
12902,142,Larynx,Left iTBS,Tone,Noise,111,5,1,0.584299099980854,1
12903,142,Larynx,Left iTBS,Tone,Noise,112,3,0,0.656711499963421,1
12904,142,Larynx,Left iTBS,Tone,Noise,113,3,1,0.935543300001882,1
12905,142,Larynx,Left iTBS,Tone,Noise,114,2,0,0.7171183999744241,1
12906,142,Larynx,Left iTBS,Tone,Noise,115,4,1,0.787175700010266,1
12907,142,Larynx,Left iTBS,Tone,Noise,116,2,0,0.7268035999732091,1
12908,142,Larynx,Left iTBS,Tone,Noise,117,4,1,0.545582699996885,1
12909,142,Larynx,Left iTBS,Tone,Noise,118,2,0,0.8683544999803421,1
12910,142,Larynx,Left iTBS,Tone,Noise,119,3,0,0.8012118999613449,1
12911,142,Larynx,Left iTBS,Tone,Noise,120,5,1,0.7557665000204,1
12912,142,Larynx,Left iTBS,Tone,Noise,121,4,1,0.5757006999920121,1
12913,142,Larynx,Left iTBS,Tone,Noise,122,1,0,0.6993192000081759,1
12914,142,Larynx,Left iTBS,Tone,Noise,123,2,0,0.7732586999773051,1
12915,142,Larynx,Left iTBS,Tone,Noise,124,5,1,0.68049699999392,1
12916,142,Larynx,Left iTBS,Tone,Noise,125,1,0,0.667467000021134,1
12917,142,Larynx,Left iTBS,Tone,Noise,126,3,0,0.653216700011399,1
12918,142,Larynx,Left iTBS,Tone,Noise,127,1,0,0.671416600001976,1
12919,142,Larynx,Left iTBS,Tone,Noise,128,3,0,0.778583100007381,1
12920,142,Larynx,Left iTBS,Tone,Noise,129,1,0,0.792111399990972,1
12921,142,Larynx,Left iTBS,Tone,Noise,130,4,1,0.619229000003543,1
12922,142,Larynx,Left iTBS,Tone,Noise,131,5,1,0.5637378999963399,1
12923,142,Larynx,Left iTBS,Tone,Noise,132,4,1,0.6280906999600121,1
12924,142,Larynx,Left iTBS,Tone,Noise,133,4,1,0.6555461999960239,1
12925,142,Larynx,Left iTBS,Tone,Noise,134,5,1,0.6374144000001251,1
12926,142,Larynx,Left iTBS,Tone,Noise,135,2,0,0.5862622999702579,1
12927,142,Larynx,Left iTBS,Tone,Noise,136,2,1,0.992739800014533,1
12928,142,Larynx,Left iTBS,Tone,Noise,137,5,1,0.6201943000196479,1
12929,142,Larynx,Left iTBS,Tone,Noise,138,3,1,0.763745000003837,1
12930,142,Larynx,Left iTBS,Tone,Noise,139,3,1,0.8219157000421551,1
12931,142,Larynx,Left iTBS,Tone,Noise,140,4,0,0.5322145000100139,1
12932,142,Larynx,Left iTBS,Tone,Noise,141,2,0,0.804346200020518,1
12933,142,Larynx,Left iTBS,Tone,Noise,142,2,0,0.6859169999952429,1
12934,142,Larynx,Left iTBS,Tone,Noise,143,1,0,0.7452481999644079,1
12935,142,Larynx,Left iTBS,Tone,Noise,144,4,1,0.536654900002759,1
12936,142,Larynx,Left iTBS,Tone,Noise,145,3,0,0.726799299998675,1
12937,142,Larynx,Left iTBS,Tone,Noise,146,3,1,0.909899699967355,1
12938,142,Larynx,Left iTBS,Tone,Noise,147,3,1,0.783837399969343,1
12939,142,Larynx,Left iTBS,Tone,Noise,148,4,1,0.630580299999565,1
12940,142,Larynx,Left iTBS,Tone,Noise,149,5,1,0.67492909997236,1
12941,142,Larynx,Left iTBS,Tone,Noise,150,2,0,0.6179844000143929,1
12942,142,Larynx,Left iTBS,Tone,Noise,151,2,0,0.59007230005227,1
12943,142,Larynx,Left iTBS,Tone,Noise,152,3,0,0.685932599997614,1
12944,142,Larynx,Left iTBS,Tone,Noise,153,3,1,0.6977515000035059,1
12945,142,Larynx,Left iTBS,Tone,Noise,154,3,0,0.659511999983806,1
12946,142,Larynx,Left iTBS,Tone,Noise,155,1,0,0.6709479999844921,1
12947,142,Larynx,Left iTBS,Tone,Noise,156,4,1,0.5550382999936121,1
15288,142,Larynx,Sham,Tone,Noise,1,2,0,0.8485331000010771,1
15289,142,Larynx,Sham,Tone,Noise,2,3,0,0.8498532999983579,1
15290,142,Larynx,Sham,Tone,Noise,3,5,1,0.62902330000361,1
15291,142,Larynx,Sham,Tone,Noise,4,5,1,0.7811605000024431,1
15292,142,Larynx,Sham,Tone,Noise,5,2,0,0.8204712000006109,1
15293,142,Larynx,Sham,Tone,Noise,6,4,1,0.621602300001541,1
15294,142,Larynx,Sham,Tone,Noise,7,1,0,0.7109864000012751,1
15295,142,Larynx,Sham,Tone,Noise,8,2,1,0.606359800000064,1
15296,142,Larynx,Sham,Tone,Noise,9,3,0,0.64297230000011,1
15297,142,Larynx,Sham,Tone,Noise,10,3,1,0.5429867000020749,1
15298,142,Larynx,Sham,Tone,Noise,11,1,0,0.6598586000000071,1
15299,142,Larynx,Sham,Tone,Noise,12,4,1,0.753619200000685,1
15300,142,Larynx,Sham,Tone,Noise,13,3,1,0.46857939999972603,1
15301,142,Larynx,Sham,Tone,Noise,14,3,1,0.52624250000008,1
15302,142,Larynx,Sham,Tone,Noise,15,1,0,0.9996721999996229,1
15303,142,Larynx,Sham,Tone,Noise,16,2,1,0.791801999999734,1
15304,142,Larynx,Sham,Tone,Noise,17,3,1,0.9299192999969821,1
15305,142,Larynx,Sham,Tone,Noise,18,5,0,1.16293719999885,1
15306,142,Larynx,Sham,Tone,Noise,19,5,1,0.609384499999578,1
15307,142,Larynx,Sham,Tone,Noise,20,3,1,0.588406699996995,1
15308,142,Larynx,Sham,Tone,Noise,21,4,1,0.8717237999990181,1
15309,142,Larynx,Sham,Tone,Noise,22,1,0,0.5860655999968001,1
15310,142,Larynx,Sham,Tone,Noise,23,3,0,0.6916782000007521,1
15311,142,Larynx,Sham,Tone,Noise,24,5,1,0.609853000001749,1
15312,142,Larynx,Sham,Tone,Noise,25,2,0,0.725115299999743,1
15313,142,Larynx,Sham,Tone,Noise,26,3,0,0.6641728999966291,1
15314,142,Larynx,Sham,Tone,Noise,27,4,0,0.7225093999986709,1
15315,142,Larynx,Sham,Tone,Noise,28,2,1,0.693096700000751,1
15316,142,Larynx,Sham,Tone,Noise,29,4,0,0.7209609000019549,1
15317,142,Larynx,Sham,Tone,Noise,30,4,1,0.631969800000661,1
15318,142,Larynx,Sham,Tone,Noise,31,3,1,1.014349699999,1
15319,142,Larynx,Sham,Tone,Noise,32,4,0,0.5640628000001021,1
15320,142,Larynx,Sham,Tone,Noise,33,5,1,0.5881594999991651,1
15321,142,Larynx,Sham,Tone,Noise,34,1,0,0.6420109999999111,1
15322,142,Larynx,Sham,Tone,Noise,35,4,1,0.652017899999919,1
15323,142,Larynx,Sham,Tone,Noise,36,2,0,0.736863500002073,1
15324,142,Larynx,Sham,Tone,Noise,37,2,0,0.8121773000020771,1
15325,142,Larynx,Sham,Tone,Noise,38,3,0,0.660808499997074,1
15326,142,Larynx,Sham,Tone,Noise,39,1,1,0.550306799999817,1
15327,142,Larynx,Sham,Tone,Noise,40,3,0,1.10470400000122,1
15328,142,Larynx,Sham,Tone,Noise,41,3,0,0.636515199999849,1
15329,142,Larynx,Sham,Tone,Noise,42,5,1,0.49473659999784997,1
15330,142,Larynx,Sham,Tone,Noise,43,1,0,0.778463399998145,1
15331,142,Larynx,Sham,Tone,Noise,44,2,0,0.688589599998522,1
15332,142,Larynx,Sham,Tone,Noise,45,3,0,0.747033600000577,1
15333,142,Larynx,Sham,Tone,Noise,46,2,0,0.7884078999995842,1
15334,142,Larynx,Sham,Tone,Noise,47,2,1,0.6707413000003729,1
15335,142,Larynx,Sham,Tone,Noise,48,5,1,0.552561399999831,1
15336,142,Larynx,Sham,Tone,Noise,49,4,1,0.618821200001548,1
15337,142,Larynx,Sham,Tone,Noise,50,5,1,0.6670778999978211,1
15338,142,Larynx,Sham,Tone,Noise,51,1,0,0.48903669999708704,1
15339,142,Larynx,Sham,Tone,Noise,52,1,0,0.528193199999805,1
15340,142,Larynx,Sham,Tone,Noise,53,4,1,0.6649046999991701,1
15341,142,Larynx,Sham,Tone,Noise,54,5,1,0.854055399999197,1
15342,142,Larynx,Sham,Tone,Noise,55,2,0,0.561980499998754,1
15343,142,Larynx,Sham,Tone,Noise,56,4,1,0.51953809999759,1
15344,142,Larynx,Sham,Tone,Noise,57,4,1,0.6872788000000579,1
15345,142,Larynx,Sham,Tone,Noise,58,3,0,0.6032653000002031,1
15346,142,Larynx,Sham,Tone,Noise,59,3,0,0.968957500001125,1
15347,142,Larynx,Sham,Tone,Noise,60,2,1,0.542008599997644,1
15348,142,Larynx,Sham,Tone,Noise,61,1,0,0.675412000000506,1
15349,142,Larynx,Sham,Tone,Noise,62,4,1,0.7341851999990471,1
15350,142,Larynx,Sham,Tone,Noise,63,3,0,0.557666999997309,1
15351,142,Larynx,Sham,Tone,Noise,64,3,0,0.624731100000645,1
15352,142,Larynx,Sham,Tone,Noise,65,3,0,0.588202300001285,1
15353,142,Larynx,Sham,Tone,Noise,66,1,0,0.758747900003073,1
15354,142,Larynx,Sham,Tone,Noise,67,5,1,0.544602500001929,1
15355,142,Larynx,Sham,Tone,Noise,68,2,0,0.6976168000001051,1
15356,142,Larynx,Sham,Tone,Noise,69,4,1,0.6437273000010459,1
15357,142,Larynx,Sham,Tone,Noise,70,2,0,0.718219499998668,1
15358,142,Larynx,Sham,Tone,Noise,71,3,1,0.612431199999264,1
15359,142,Larynx,Sham,Tone,Noise,72,3,0,0.6812304000013679,1
15360,142,Larynx,Sham,Tone,Noise,73,2,0,0.697587499998917,1
15361,142,Larynx,Sham,Tone,Noise,74,4,1,0.7216255000021189,1
15362,142,Larynx,Sham,Tone,Noise,75,3,0,0.79210989999774,1
15363,142,Larynx,Sham,Tone,Noise,76,5,1,0.904421899998852,1
15364,142,Larynx,Sham,Tone,Noise,77,1,0,0.568565800000215,1
15365,142,Larynx,Sham,Tone,Noise,78,4,1,0.498615500000597,1
15366,142,Larynx,Sham,Tone,Noise,79,5,1,0.832690200000798,1
15367,142,Larynx,Sham,Tone,Noise,80,3,0,0.7050319000009041,1
15368,142,Larynx,Sham,Tone,Noise,81,3,0,0.624990599997545,1
15369,142,Larynx,Sham,Tone,Noise,82,4,1,0.5291649999999211,1
15370,142,Larynx,Sham,Tone,Noise,83,3,1,0.490818599999329,1
15371,142,Larynx,Sham,Tone,Noise,84,4,1,0.8545479999993401,1
15372,142,Larynx,Sham,Tone,Noise,85,1,0,0.6604251999997359,1
15373,142,Larynx,Sham,Tone,Noise,86,3,0,0.6662954000021271,1
15374,142,Larynx,Sham,Tone,Noise,87,2,1,0.609974499999225,1
15375,142,Larynx,Sham,Tone,Noise,88,1,0,0.661649199999374,1
15376,142,Larynx,Sham,Tone,Noise,89,4,0,0.643202700000984,1
15377,142,Larynx,Sham,Tone,Noise,90,3,0,0.6925103999965361,1
15378,142,Larynx,Sham,Tone,Noise,91,3,1,0.654295800002728,1
15379,142,Larynx,Sham,Tone,Noise,92,1,0,0.956473600002937,1
15380,142,Larynx,Sham,Tone,Noise,93,5,1,0.628650800001196,1
15381,142,Larynx,Sham,Tone,Noise,94,2,0,0.622915199997806,1
15382,142,Larynx,Sham,Tone,Noise,95,1,0,0.678208400000585,1
15383,142,Larynx,Sham,Tone,Noise,96,4,1,0.560766400001739,1
15384,142,Larynx,Sham,Tone,Noise,97,4,1,0.5158521000012121,1
15385,142,Larynx,Sham,Tone,Noise,98,2,0,0.678938100001687,1
15386,142,Larynx,Sham,Tone,Noise,99,2,0,0.825157000002946,1
15387,142,Larynx,Sham,Tone,Noise,100,4,1,0.52215200000137,1
15388,142,Larynx,Sham,Tone,Noise,101,3,0,0.7086400999978649,1
15389,142,Larynx,Sham,Tone,Noise,102,2,0,0.574083399998926,1
15390,142,Larynx,Sham,Tone,Noise,103,3,0,0.612449800002651,1
15391,142,Larynx,Sham,Tone,Noise,104,3,0,0.621856800000387,1
15392,142,Larynx,Sham,Tone,Noise,105,5,1,0.558454800000618,1
15393,142,Larynx,Sham,Tone,Noise,106,2,0,0.693050199999561,1
15394,142,Larynx,Sham,Tone,Noise,107,2,0,0.677209000001312,1
15395,142,Larynx,Sham,Tone,Noise,108,4,1,0.508600599998317,1
15396,142,Larynx,Sham,Tone,Noise,109,5,1,0.68837540000095,1
15397,142,Larynx,Sham,Tone,Noise,110,1,0,0.628478700000414,1
15398,142,Larynx,Sham,Tone,Noise,111,5,1,0.6628373999992621,1
15399,142,Larynx,Sham,Tone,Noise,112,1,0,0.549949399999605,1
15400,142,Larynx,Sham,Tone,Noise,113,4,1,0.753565800001525,1
15401,142,Larynx,Sham,Tone,Noise,114,3,0,0.651772600002005,1
15402,142,Larynx,Sham,Tone,Noise,115,2,0,0.763781199999357,1
15403,142,Larynx,Sham,Tone,Noise,116,3,1,0.563612400001148,1
15404,142,Larynx,Sham,Tone,Noise,117,5,1,0.616719699999521,1
15405,142,Larynx,Sham,Tone,Noise,118,4,1,0.740747400002874,1
15406,142,Larynx,Sham,Tone,Noise,119,5,1,0.6961191999980659,1
15407,142,Larynx,Sham,Tone,Noise,120,2,0,0.536082700000406,1
15408,142,Larynx,Sham,Tone,Noise,121,3,0,0.613847500000702,1
15409,142,Larynx,Sham,Tone,Noise,122,4,1,0.5841885000008921,1
15410,142,Larynx,Sham,Tone,Noise,123,4,1,0.62944719999723,1
15411,142,Larynx,Sham,Tone,Noise,124,2,0,0.526701999999204,1
15412,142,Larynx,Sham,Tone,Noise,125,2,0,0.625565800000913,1
15413,142,Larynx,Sham,Tone,Noise,126,3,1,0.5548191999987471,1
15414,142,Larynx,Sham,Tone,Noise,127,5,1,0.88201609999669,1
15415,142,Larynx,Sham,Tone,Noise,128,1,0,0.784342000002653,1
15416,142,Larynx,Sham,Tone,Noise,129,4,0,0.578783299999486,1
15417,142,Larynx,Sham,Tone,Noise,130,3,0,0.7440002000003009,1
15418,142,Larynx,Sham,Tone,Noise,131,1,0,0.871390299998893,1
15419,142,Larynx,Sham,Tone,Noise,132,3,1,0.7309883000016271,1
15420,142,Larynx,Sham,Tone,Noise,133,3,1,0.639191900001606,1
15421,142,Larynx,Sham,Tone,Noise,134,1,1,1.04795390000072,1
15422,142,Larynx,Sham,Tone,Noise,135,2,1,1.15864330000113,1
15423,142,Larynx,Sham,Tone,Noise,136,5,1,0.9379632000018321,1
15424,142,Larynx,Sham,Tone,Noise,137,5,0,0.706471699999383,1
15425,142,Larynx,Sham,Tone,Noise,138,4,1,0.724138500001573,1
15426,142,Larynx,Sham,Tone,Noise,139,3,0,0.647480200001155,1
15427,142,Larynx,Sham,Tone,Noise,140,3,0,0.9633432000009631,1
15428,142,Larynx,Sham,Tone,Noise,141,5,0,0.815747299999202,1
15429,142,Larynx,Sham,Tone,Noise,142,4,1,0.734840000000986,1
15430,142,Larynx,Sham,Tone,Noise,143,3,0,1.03454099999726,1
15431,142,Larynx,Sham,Tone,Noise,144,2,0,0.9550641000023459,1
15432,142,Larynx,Sham,Tone,Noise,145,4,1,0.815613599999779,1
15433,142,Larynx,Sham,Tone,Noise,146,1,0,0.659484600000724,1
15434,142,Larynx,Sham,Tone,Noise,147,1,0,0.7123107000006709,1
15435,142,Larynx,Sham,Tone,Noise,148,3,0,0.6539852999994761,1
15436,142,Larynx,Sham,Tone,Noise,149,2,1,0.6008290999998279,1
15437,142,Larynx,Sham,Tone,Noise,150,1,0,0.626550200002384,1
15438,142,Larynx,Sham,Tone,Noise,151,5,1,0.554309700000886,1
15439,142,Larynx,Sham,Tone,Noise,152,2,0,0.610873400000855,1
15440,142,Larynx,Sham,Tone,Noise,153,4,1,0.50749359999827,1
15441,142,Larynx,Sham,Tone,Noise,154,3,0,0.7692647000003492,1
15442,142,Larynx,Sham,Tone,Noise,155,3,1,0.8415232999977891,1
15443,142,Larynx,Sham,Tone,Noise,156,2,0,0.6848255000004431,1
15912,201,Larynx,Left iTBS,Tone,Noise,1,1,0,0.870623500028159,1
15913,201,Larynx,Left iTBS,Tone,Noise,2,4,1,0.777691500028595,1
15914,201,Larynx,Left iTBS,Tone,Noise,3,2,1,0.6553681000368671,1
15915,201,Larynx,Left iTBS,Tone,Noise,4,3,1,0.630483300017659,1
15916,201,Larynx,Left iTBS,Tone,Noise,5,3,1,0.641241399978753,1
15917,201,Larynx,Left iTBS,Tone,Noise,6,4,1,0.593060399987735,1
15918,201,Larynx,Left iTBS,Tone,Noise,7,4,1,0.635097899998073,1
15919,201,Larynx,Left iTBS,Tone,Noise,8,5,1,0.660081200010609,1
15920,201,Larynx,Left iTBS,Tone,Noise,9,5,1,0.658831099979579,1
15921,201,Larynx,Left iTBS,Tone,Noise,10,2,1,0.7404737999895591,1
15922,201,Larynx,Left iTBS,Tone,Noise,11,3,1,0.629229600017425,1
15923,201,Larynx,Left iTBS,Tone,Noise,12,2,0,0.702208500006236,1
15924,201,Larynx,Left iTBS,Tone,Noise,13,1,1,0.6836574000190009,1
15925,201,Larynx,Left iTBS,Tone,Noise,14,4,1,0.6172997999819929,1
15926,201,Larynx,Left iTBS,Tone,Noise,15,3,1,0.600416200002655,1
15927,201,Larynx,Left iTBS,Tone,Noise,16,3,1,0.617931299959309,1
15928,201,Larynx,Left iTBS,Tone,Noise,17,2,1,0.6022136999526989,1
15929,201,Larynx,Left iTBS,Tone,Noise,18,1,0,0.6690363000379879,1
15930,201,Larynx,Left iTBS,Tone,Noise,19,2,1,0.7641979000181891,1
15931,201,Larynx,Left iTBS,Tone,Noise,20,1,1,0.993989099981263,1
15932,201,Larynx,Left iTBS,Tone,Noise,21,2,1,0.697487400029786,1
15933,201,Larynx,Left iTBS,Tone,Noise,22,3,1,0.499106300005224,1
15934,201,Larynx,Left iTBS,Tone,Noise,23,3,1,0.660497899982147,1
15935,201,Larynx,Left iTBS,Tone,Noise,24,1,1,0.810379900038242,1
15936,201,Larynx,Left iTBS,Tone,Noise,25,3,1,0.6914423999842261,1
15937,201,Larynx,Left iTBS,Tone,Noise,26,1,1,0.8078744999947959,1
15938,201,Larynx,Left iTBS,Tone,Noise,27,3,1,0.8015954999718821,1
15939,201,Larynx,Left iTBS,Tone,Noise,28,5,1,0.611209399998188,1
15940,201,Larynx,Left iTBS,Tone,Noise,29,4,1,0.656581299961545,1
15941,201,Larynx,Left iTBS,Tone,Noise,30,2,1,0.864019999979064,1
15942,201,Larynx,Left iTBS,Tone,Noise,31,3,1,0.584615300002042,1
15943,201,Larynx,Left iTBS,Tone,Noise,32,4,1,0.5430833999998871,1
15944,201,Larynx,Left iTBS,Tone,Noise,33,5,1,0.5947101999772709,1
15945,201,Larynx,Left iTBS,Tone,Noise,34,4,1,0.651087300037034,1
15946,201,Larynx,Left iTBS,Tone,Noise,35,4,1,0.5493878999841401,1
15947,201,Larynx,Left iTBS,Tone,Noise,36,2,1,0.71759730001213,1
15948,201,Larynx,Left iTBS,Tone,Noise,37,3,1,0.592469800030813,1
15949,201,Larynx,Left iTBS,Tone,Noise,38,5,1,0.594765599991661,1
15950,201,Larynx,Left iTBS,Tone,Noise,39,5,1,0.60650589998113,1
15951,201,Larynx,Left iTBS,Tone,Noise,40,5,1,0.568923800019547,1
15952,201,Larynx,Left iTBS,Tone,Noise,41,4,1,0.6287564000231209,1
15953,201,Larynx,Left iTBS,Tone,Noise,42,5,1,0.5460344000020999,1
15954,201,Larynx,Left iTBS,Tone,Noise,43,1,0,0.7042276000138371,1
15955,201,Larynx,Left iTBS,Tone,Noise,44,3,1,0.606441900017671,1
15956,201,Larynx,Left iTBS,Tone,Noise,45,2,1,0.6453836999717171,1
15957,201,Larynx,Left iTBS,Tone,Noise,46,3,1,0.5851125999470239,1
