,subj_idx,group_idx,turn_type,task_type,snr_type,trial_num,step_att,response,rt,step_unatnd
1092,55,Larynx,Left cTBS,Cons,Noise,1,2,0,0.742002100014361,1
1093,55,Larynx,Left cTBS,Cons,Noise,2,5,1,0.577076699992176,1
1094,55,Larynx,Left cTBS,Cons,Noise,3,3,1,0.49282059998949995,1
1095,55,Larynx,Left cTBS,Cons,Noise,4,3,0,0.67675899999449,1
1096,55,Larynx,Left cTBS,Cons,Noise,5,5,1,0.49574539999594003,1
1097,55,Larynx,Left cTBS,Cons,Noise,6,5,1,0.587692100001732,1
1098,55,Larynx,Left cTBS,Cons,Noise,7,3,0,0.6619228000054139,1
1099,55,Larynx,Left cTBS,Cons,Noise,8,2,1,0.550172699993709,1
1100,55,Larynx,Left cTBS,Cons,Noise,9,1,0,0.567172000010032,1
1101,55,Larynx,Left cTBS,Cons,Noise,10,3,1,0.5336523999867501,1
1102,55,Larynx,Left cTBS,Cons,Noise,11,4,1,0.8216836000210609,1
1103,55,Larynx,Left cTBS,Cons,Noise,12,4,1,0.607115400023758,1
1104,55,Larynx,Left cTBS,Cons,Noise,13,3,1,0.75057370000286,1
1105,55,Larynx,Left cTBS,Cons,Noise,14,3,1,0.588355000014417,1
1106,55,Larynx,Left cTBS,Cons,Noise,15,4,1,2.13211930001853,1
1107,55,Larynx,Left cTBS,Cons,Noise,16,3,1,0.624442000000272,1
1108,55,Larynx,Left cTBS,Cons,Noise,17,3,1,0.598272300005192,1
1109,55,Larynx,Left cTBS,Cons,Noise,18,2,1,0.60853070000303,1
1110,55,Larynx,Left cTBS,Cons,Noise,19,5,1,0.984859899996081,1
1111,55,Larynx,Left cTBS,Cons,Noise,20,3,0,0.84014820001903,1
1112,55,Larynx,Left cTBS,Cons,Noise,21,3,1,0.7426397000090219,1
1113,55,Larynx,Left cTBS,Cons,Noise,22,4,0,0.7123820999986491,1
1114,55,Larynx,Left cTBS,Cons,Noise,23,1,0,0.5972225000150501,1
1115,55,Larynx,Left cTBS,Cons,Noise,24,1,0,0.84694469999522,1
1116,55,Larynx,Left cTBS,Cons,Noise,25,1,0,0.806715200014878,1
1117,55,Larynx,Left cTBS,Cons,Noise,26,1,0,0.718804600008298,1
1118,55,Larynx,Left cTBS,Cons,Noise,27,5,1,0.76791900000535,1
1119,55,Larynx,Left cTBS,Cons,Noise,28,2,1,2.1039965999953,1
1120,55,Larynx,Left cTBS,Cons,Noise,29,2,0,0.692345899995416,1
1121,55,Larynx,Left cTBS,Cons,Noise,30,2,0,0.9563490999862551,1
1122,55,Larynx,Left cTBS,Cons,Noise,31,4,1,0.732464599976083,1
1123,55,Larynx,Left cTBS,Cons,Noise,32,4,1,0.612641399988206,1
1124,55,Larynx,Left cTBS,Cons,Noise,33,3,0,0.8345262999937401,1
1125,55,Larynx,Left cTBS,Cons,Noise,34,2,0,0.6275363000168,1
1126,55,Larynx,Left cTBS,Cons,Noise,35,4,1,0.7440046000119759,1
1127,55,Larynx,Left cTBS,Cons,Noise,36,1,1,0.5684715000097641,1
1128,55,Larynx,Left cTBS,Cons,Noise,37,5,1,1.43382700000075,1
1129,55,Larynx,Left cTBS,Cons,Noise,38,2,1,0.669738399999915,1
1130,55,Larynx,Left cTBS,Cons,Noise,39,4,0,0.6931018000177571,1
1131,55,Larynx,Left cTBS,Cons,Noise,40,4,0,0.651904300000751,1
1132,55,Larynx,Left cTBS,Cons,Noise,41,1,0,0.888275899982546,1
1133,55,Larynx,Left cTBS,Cons,Noise,42,3,1,0.70574740000302,1
1134,55,Larynx,Left cTBS,Cons,Noise,43,3,0,0.691076899995096,1
1135,55,Larynx,Left cTBS,Cons,Noise,44,5,0,0.6171122000087049,1
1136,55,Larynx,Left cTBS,Cons,Noise,45,2,1,1.88550319999922,1
1137,55,Larynx,Left cTBS,Cons,Noise,46,3,1,0.6654590000107421,1
1138,55,Larynx,Left cTBS,Cons,Noise,47,4,1,0.666720100009115,1
1139,55,Larynx,Left cTBS,Cons,Noise,48,3,1,0.809056900005089,1
1140,55,Larynx,Left cTBS,Cons,Noise,49,2,1,0.77764240000397,1
1141,55,Larynx,Left cTBS,Cons,Noise,50,2,1,0.751874400011729,1
1142,55,Larynx,Left cTBS,Cons,Noise,51,3,1,1.91562580000027,1
1143,55,Larynx,Left cTBS,Cons,Noise,52,3,1,1.2734211999923002,1
1144,55,Larynx,Left cTBS,Cons,Noise,53,1,0,0.679086799995275,1
1145,55,Larynx,Left cTBS,Cons,Noise,54,1,0,0.6352971999731379,1
1146,55,Larynx,Left cTBS,Cons,Noise,55,2,0,1.20106160000432,1
1147,55,Larynx,Left cTBS,Cons,Noise,56,5,1,0.880415899999207,1
1148,55,Larynx,Left cTBS,Cons,Noise,57,4,1,0.636664099991322,1
1149,55,Larynx,Left cTBS,Cons,Noise,58,5,1,2.72772669998812,1
1150,55,Larynx,Left cTBS,Cons,Noise,59,5,1,0.859476999990875,1
1151,55,Larynx,Left cTBS,Cons,Noise,60,2,0,0.624762399995234,1
1152,55,Larynx,Left cTBS,Cons,Noise,61,3,1,0.756850100005977,1
1153,55,Larynx,Left cTBS,Cons,Noise,62,3,1,0.7277931000280659,1
1154,55,Larynx,Left cTBS,Cons,Noise,63,4,1,0.68604120000964,1
1155,55,Larynx,Left cTBS,Cons,Noise,64,1,0,0.831253900018055,1
1156,55,Larynx,Left cTBS,Cons,Noise,65,4,1,0.70485350000672,1
1157,55,Larynx,Left cTBS,Cons,Noise,66,3,1,0.708095499983756,1
1158,55,Larynx,Left cTBS,Cons,Noise,67,2,1,0.517301399988355,1
1159,55,Larynx,Left cTBS,Cons,Noise,68,4,1,0.615350200008834,1
1160,55,Larynx,Left cTBS,Cons,Noise,69,2,0,0.7559094000025649,1
1161,55,Larynx,Left cTBS,Cons,Noise,70,3,1,0.7721023000194691,1
1162,55,Larynx,Left cTBS,Cons,Noise,71,1,0,1.2686326999973998,1
1163,55,Larynx,Left cTBS,Cons,Noise,72,5,1,0.35111640000832295,1
1164,55,Larynx,Left cTBS,Cons,Noise,73,4,1,0.630956000008155,1
1165,55,Larynx,Left cTBS,Cons,Noise,74,1,0,0.672255099983886,1
1166,55,Larynx,Left cTBS,Cons,Noise,75,5,1,0.521574200014584,1
1167,55,Larynx,Left cTBS,Cons,Noise,76,4,1,0.7885887000011279,1
1168,55,Larynx,Left cTBS,Cons,Noise,77,3,0,0.9100741999864109,1
1169,55,Larynx,Left cTBS,Cons,Noise,78,2,1,0.8757547000132041,1
1170,55,Larynx,Left cTBS,Cons,Noise,79,3,1,0.559121600002982,1
1171,55,Larynx,Left cTBS,Cons,Noise,80,3,1,0.927286299993284,1
1172,55,Larynx,Left cTBS,Cons,Noise,81,5,1,0.6828906000009739,1
1173,55,Larynx,Left cTBS,Cons,Noise,82,4,1,0.865216000005603,1
1174,55,Larynx,Left cTBS,Cons,Noise,83,3,0,0.7426222999929449,1
1175,55,Larynx,Left cTBS,Cons,Noise,84,3,1,1.0025707999884599,1
1176,55,Larynx,Left cTBS,Cons,Noise,85,3,0,1.16925780000747,1
1177,55,Larynx,Left cTBS,Cons,Noise,86,2,1,0.8672323999926451,1
1178,55,Larynx,Left cTBS,Cons,Noise,87,2,1,1.0104194000014102,1
1179,55,Larynx,Left cTBS,Cons,Noise,88,1,1,0.886341200006427,1
1180,55,Larynx,Left cTBS,Cons,Noise,89,2,0,3.0471966000041,1
1181,55,Larynx,Left cTBS,Cons,Noise,90,4,1,0.652100100007374,1
1182,55,Larynx,Left cTBS,Cons,Noise,91,1,0,0.57087130000582,1
1183,55,Larynx,Left cTBS,Cons,Noise,92,3,1,0.602693200024078,1
1184,55,Larynx,Left cTBS,Cons,Noise,93,1,0,0.5351919000095221,1
1185,55,Larynx,Left cTBS,Cons,Noise,94,4,1,0.43294980001519395,1
1186,55,Larynx,Left cTBS,Cons,Noise,95,4,0,0.7808111000049391,1
1187,55,Larynx,Left cTBS,Cons,Noise,96,2,1,0.513517800020054,1
1188,55,Larynx,Left cTBS,Cons,Noise,97,4,0,1.38383909998811,1
1189,55,Larynx,Left cTBS,Cons,Noise,98,1,1,0.598704500007443,1
1190,55,Larynx,Left cTBS,Cons,Noise,99,3,1,2.8775310000055496,1
1191,55,Larynx,Left cTBS,Cons,Noise,100,1,0,0.6253387999895489,1
1192,55,Larynx,Left cTBS,Cons,Noise,101,4,0,0.879319700004999,1
1193,55,Larynx,Left cTBS,Cons,Noise,102,5,1,1.03069909999613,1
1194,55,Larynx,Left cTBS,Cons,Noise,103,5,1,1.09193080000114,1
1195,55,Larynx,Left cTBS,Cons,Noise,104,3,1,0.7286061000195329,1
1196,55,Larynx,Left cTBS,Cons,Noise,105,4,0,1.7701328000112,1
1197,55,Larynx,Left cTBS,Cons,Noise,106,4,0,1.43697619999875,1
1198,55,Larynx,Left cTBS,Cons,Noise,107,5,0,0.7793003999977371,1
1199,55,Larynx,Left cTBS,Cons,Noise,108,5,0,0.6458780999819279,1
1200,55,Larynx,Left cTBS,Cons,Noise,109,2,1,0.87013090000255,1
1201,55,Larynx,Left cTBS,Cons,Noise,110,5,0,0.48928259999956897,1
1202,55,Larynx,Left cTBS,Cons,Noise,111,2,0,0.7182201000105121,1
1203,55,Larynx,Left cTBS,Cons,Noise,112,1,1,0.7255164999805859,1
1204,55,Larynx,Left cTBS,Cons,Noise,113,3,1,2.03340719998232,1
1205,55,Larynx,Left cTBS,Cons,Noise,114,2,1,0.618656499980716,1
1206,55,Larynx,Left cTBS,Cons,Noise,115,3,0,0.8699771999963559,1
1207,55,Larynx,Left cTBS,Cons,Noise,116,2,0,1.3757619000098202,1
1208,55,Larynx,Left cTBS,Cons,Noise,117,3,1,0.642351799993776,1
1209,55,Larynx,Left cTBS,Cons,Noise,118,2,1,1.04072140000062,1
1210,55,Larynx,Left cTBS,Cons,Noise,119,3,0,0.667068800015841,1
1211,55,Larynx,Left cTBS,Cons,Noise,120,4,0,0.7211337000189809,1
1212,55,Larynx,Left cTBS,Cons,Noise,121,3,1,0.8893665000214241,1
1213,55,Larynx,Left cTBS,Cons,Noise,122,5,1,0.326731500012102,1
1214,55,Larynx,Left cTBS,Cons,Noise,123,2,0,0.566000499995425,1
1215,55,Larynx,Left cTBS,Cons,Noise,124,4,0,0.863449199998286,1
1216,55,Larynx,Left cTBS,Cons,Noise,125,1,0,0.793462399975397,1
1217,55,Larynx,Left cTBS,Cons,Noise,126,5,1,0.562728000018978,1
1218,55,Larynx,Left cTBS,Cons,Noise,127,4,1,0.560773799981689,1
1219,55,Larynx,Left cTBS,Cons,Noise,128,1,0,0.62396080000326,1
1220,55,Larynx,Left cTBS,Cons,Noise,129,2,1,0.668672300002072,1
1221,55,Larynx,Left cTBS,Cons,Noise,130,4,1,2.42083160000038,1
1222,55,Larynx,Left cTBS,Cons,Noise,131,5,1,0.659325899992837,1
1223,55,Larynx,Left cTBS,Cons,Noise,132,2,0,0.9646101999969691,1
1224,55,Larynx,Left cTBS,Cons,Noise,133,1,0,1.02213349999511,1
1225,55,Larynx,Left cTBS,Cons,Noise,134,2,1,0.6739846999989821,1
1226,55,Larynx,Left cTBS,Cons,Noise,135,2,0,3.31974620002438,1
1227,55,Larynx,Left cTBS,Cons,Noise,136,3,0,0.720760600001086,1
1228,55,Larynx,Left cTBS,Cons,Noise,137,1,0,0.6100948000093921,1
1229,55,Larynx,Left cTBS,Cons,Noise,138,2,0,0.6263590999878941,1
1230,55,Larynx,Left cTBS,Cons,Noise,139,4,0,0.727846999972826,1
1231,55,Larynx,Left cTBS,Cons,Noise,140,3,0,0.741066100017633,1
1232,55,Larynx,Left cTBS,Cons,Noise,141,3,1,2.03216970001813,1
1233,55,Larynx,Left cTBS,Cons,Noise,142,4,1,0.8086730999930299,1
1234,55,Larynx,Left cTBS,Cons,Noise,143,5,1,1.38613529998111,1
1235,55,Larynx,Left cTBS,Cons,Noise,144,3,0,1.44882229997893,1
1236,55,Larynx,Left cTBS,Cons,Noise,145,5,0,1.2542229999962702,1
1237,55,Larynx,Left cTBS,Cons,Noise,146,1,0,0.949906199995894,1
1238,55,Larynx,Left cTBS,Cons,Noise,147,3,1,3.51004399999511,1
1239,55,Larynx,Left cTBS,Cons,Noise,148,5,1,0.6926511999918149,1
1240,55,Larynx,Left cTBS,Cons,Noise,149,3,1,0.611154199985322,1
1241,55,Larynx,Left cTBS,Cons,Noise,150,3,0,0.610352299991064,1
1242,55,Larynx,Left cTBS,Cons,Noise,151,2,1,0.567044700001134,1
1243,55,Larynx,Left cTBS,Cons,Noise,152,3,1,1.0417742999852602,1
1244,55,Larynx,Left cTBS,Cons,Noise,153,1,0,0.7683811000024431,1
1245,55,Larynx,Left cTBS,Cons,Noise,154,3,1,0.623527199990349,1
1246,55,Larynx,Left cTBS,Cons,Noise,155,4,1,1.09553760002018,1
1247,55,Larynx,Left cTBS,Cons,Noise,156,4,0,0.722038899984909,1
2964,55,Larynx,Sham,Cons,Noise,1,3,0,1.5307869000826002,1
2965,55,Larynx,Sham,Cons,Noise,2,4,1,0.6821456999750811,1
2966,55,Larynx,Sham,Cons,Noise,3,4,1,0.658868899918161,1
2967,55,Larynx,Sham,Cons,Noise,4,5,1,0.6469414000166579,1
2968,55,Larynx,Sham,Cons,Noise,5,4,1,0.62145530001726,1
2969,55,Larynx,Sham,Cons,Noise,6,4,0,0.5319529999978839,1
2970,55,Larynx,Sham,Cons,Noise,7,5,0,0.71343949995935,1
2971,55,Larynx,Sham,Cons,Noise,8,5,1,0.49909990001469895,1
2972,55,Larynx,Sham,Cons,Noise,9,1,0,0.503549999906681,1
2973,55,Larynx,Sham,Cons,Noise,10,3,1,0.48702460003551096,1
2974,55,Larynx,Sham,Cons,Noise,11,5,1,0.8237498999806121,1
2975,55,Larynx,Sham,Cons,Noise,12,2,0,0.482698799925856,1
2976,55,Larynx,Sham,Cons,Noise,13,3,1,0.537001100019552,1
2977,55,Larynx,Sham,Cons,Noise,14,1,0,0.48370779992546903,1
2978,55,Larynx,Sham,Cons,Noise,15,1,1,0.49290080007631304,1
2979,55,Larynx,Sham,Cons,Noise,16,2,0,0.582844799966551,1
2980,55,Larynx,Sham,Cons,Noise,17,3,1,0.52484640001785,1
2981,55,Larynx,Sham,Cons,Noise,18,1,0,0.753753899945877,1
2982,55,Larynx,Sham,Cons,Noise,19,3,1,0.7051534999627621,1
2983,55,Larynx,Sham,Cons,Noise,20,3,1,0.6509593999944631,1
2984,55,Larynx,Sham,Cons,Noise,21,3,0,0.622055899933912,1
2985,55,Larynx,Sham,Cons,Noise,22,4,1,0.464599599945359,1
2986,55,Larynx,Sham,Cons,Noise,23,4,1,0.678987700026482,1
2987,55,Larynx,Sham,Cons,Noise,24,5,1,0.565542099997401,1
2988,55,Larynx,Sham,Cons,Noise,25,3,1,0.566953699919395,1
2989,55,Larynx,Sham,Cons,Noise,26,3,1,0.7364814000902701,1
2990,55,Larynx,Sham,Cons,Noise,27,3,1,0.48162820003926793,1
2991,55,Larynx,Sham,Cons,Noise,28,1,0,0.517724800040014,1
2992,55,Larynx,Sham,Cons,Noise,29,4,1,0.47455649997573296,1
2993,55,Larynx,Sham,Cons,Noise,30,2,1,0.662513299961574,1
2994,55,Larynx,Sham,Cons,Noise,31,2,1,0.846782799926586,1
2995,55,Larynx,Sham,Cons,Noise,32,3,1,0.519919599988498,1
2996,55,Larynx,Sham,Cons,Noise,33,4,1,0.8943163000512869,1
2997,55,Larynx,Sham,Cons,Noise,34,5,1,0.592016999959014,1
2998,55,Larynx,Sham,Cons,Noise,35,2,1,0.6112741000251839,1
2999,55,Larynx,Sham,Cons,Noise,36,2,1,0.6967818000121041,1
3000,55,Larynx,Sham,Cons,Noise,37,2,0,0.5979539999971171,1
3001,55,Larynx,Sham,Cons,Noise,38,1,0,0.612666400033049,1
3002,55,Larynx,Sham,Cons,Noise,39,2,1,0.53074319998268,1
3003,55,Larynx,Sham,Cons,Noise,40,4,1,0.516306400066242,1
3004,55,Larynx,Sham,Cons,Noise,41,3,0,1.15840950002894,1
3005,55,Larynx,Sham,Cons,Noise,42,4,1,0.787510799942538,1
3006,55,Larynx,Sham,Cons,Noise,43,1,0,0.6617557000136,1
3007,55,Larynx,Sham,Cons,Noise,44,1,0,0.71685399999842,1
3008,55,Larynx,Sham,Cons,Noise,45,2,1,0.7057427000254392,1
3009,55,Larynx,Sham,Cons,Noise,46,4,1,0.547556199948303,1
3010,55,Larynx,Sham,Cons,Noise,47,4,1,0.578619100037031,1
3011,55,Larynx,Sham,Cons,Noise,48,5,1,0.667144199949689,1
3012,55,Larynx,Sham,Cons,Noise,49,4,1,0.820698500028811,1
3013,55,Larynx,Sham,Cons,Noise,50,2,0,0.725479799904861,1
3014,55,Larynx,Sham,Cons,Noise,51,1,0,0.690131500014104,1
3015,55,Larynx,Sham,Cons,Noise,52,3,1,0.682829300058074,1
3016,55,Larynx,Sham,Cons,Noise,53,5,1,0.666599899996072,1
3017,55,Larynx,Sham,Cons,Noise,54,2,1,0.9784353999421,1
3018,55,Larynx,Sham,Cons,Noise,55,2,0,0.8164500000420959,1
3019,55,Larynx,Sham,Cons,Noise,56,3,1,0.719150200020522,1
3020,55,Larynx,Sham,Cons,Noise,57,5,1,0.739570299978368,1
3021,55,Larynx,Sham,Cons,Noise,58,3,0,0.678393499925733,1
3022,55,Larynx,Sham,Cons,Noise,59,3,1,0.630099799949676,1
3023,55,Larynx,Sham,Cons,Noise,60,2,1,0.771972800022922,1
3024,55,Larynx,Sham,Cons,Noise,61,3,1,0.7075641000410541,1
3025,55,Larynx,Sham,Cons,Noise,62,4,1,0.8816059000091631,1
3026,55,Larynx,Sham,Cons,Noise,63,3,0,0.6928621999686579,1
3027,55,Larynx,Sham,Cons,Noise,64,5,1,1.4291567999171102,1
3028,55,Larynx,Sham,Cons,Noise,65,3,1,0.932141899946146,1
3029,55,Larynx,Sham,Cons,Noise,66,3,0,1.12818849994801,1
3030,55,Larynx,Sham,Cons,Noise,67,4,1,1.0199495999841,1
3031,55,Larynx,Sham,Cons,Noise,68,1,0,0.8284651999128979,1
3032,55,Larynx,Sham,Cons,Noise,69,3,0,0.8511536000296469,1
3033,55,Larynx,Sham,Cons,Noise,70,5,1,0.730682100052945,1
3034,55,Larynx,Sham,Cons,Noise,71,3,1,1.19798270007595,1
3035,55,Larynx,Sham,Cons,Noise,72,4,0,2.34898810007144,1
3036,55,Larynx,Sham,Cons,Noise,73,5,1,0.680964199942537,1
3037,55,Larynx,Sham,Cons,Noise,74,2,0,0.717610500054434,1
3038,55,Larynx,Sham,Cons,Noise,75,1,0,0.5912231999682261,1
3039,55,Larynx,Sham,Cons,Noise,76,2,0,0.599850500002503,1
3040,55,Larynx,Sham,Cons,Noise,77,1,0,0.662809599889442,1
3041,55,Larynx,Sham,Cons,Noise,78,2,1,0.8253241999773309,1
3042,55,Larynx,Sham,Cons,Noise,79,5,1,0.703555700019933,1
3043,55,Larynx,Sham,Cons,Noise,80,2,0,0.5959268999285999,1
3044,55,Larynx,Sham,Cons,Noise,81,2,0,0.8908233999973159,1
3045,55,Larynx,Sham,Cons,Noise,82,2,1,1.5969076999463099,1
3046,55,Larynx,Sham,Cons,Noise,83,4,1,0.775763800018467,1
3047,55,Larynx,Sham,Cons,Noise,84,2,0,0.7285356000065799,1
3048,55,Larynx,Sham,Cons,Noise,85,2,0,2.48500959994271,1
3049,55,Larynx,Sham,Cons,Noise,86,1,0,0.766181799932383,1
3050,55,Larynx,Sham,Cons,Noise,87,5,1,0.8949987998930741,1
3051,55,Larynx,Sham,Cons,Noise,88,5,1,0.7133462999481709,1
3052,55,Larynx,Sham,Cons,Noise,89,3,0,1.07265850005206,1
3053,55,Larynx,Sham,Cons,Noise,90,3,1,0.9192121999803929,1
3054,55,Larynx,Sham,Cons,Noise,91,3,1,0.680175399989821,1
3055,55,Larynx,Sham,Cons,Noise,92,4,1,0.6647099000401789,1
3056,55,Larynx,Sham,Cons,Noise,93,4,1,0.673506099963561,1
3057,55,Larynx,Sham,Cons,Noise,94,5,1,0.660587299964391,1
3058,55,Larynx,Sham,Cons,Noise,95,4,1,0.591025899979286,1
3059,55,Larynx,Sham,Cons,Noise,96,5,1,0.7355561000294979,1
3060,55,Larynx,Sham,Cons,Noise,97,1,0,0.614329000003636,1
3061,55,Larynx,Sham,Cons,Noise,98,3,1,0.66858699999284,1
3062,55,Larynx,Sham,Cons,Noise,99,1,0,0.6719857000280172,1
3063,55,Larynx,Sham,Cons,Noise,100,3,1,1.01941840001382,1
3064,55,Larynx,Sham,Cons,Noise,101,1,0,2.55356090003625,1
3065,55,Larynx,Sham,Cons,Noise,102,4,1,0.738425999996252,1
3066,55,Larynx,Sham,Cons,Noise,103,3,0,0.7448549000546341,1
3067,55,Larynx,Sham,Cons,Noise,104,4,1,0.57066559989471,1
3068,55,Larynx,Sham,Cons,Noise,105,2,1,1.25289070000872,1
3069,55,Larynx,Sham,Cons,Noise,106,3,1,0.647669299971312,1
3070,55,Larynx,Sham,Cons,Noise,107,3,1,0.616101999999955,1
3071,55,Larynx,Sham,Cons,Noise,108,5,0,0.697021400090307,1
3072,55,Larynx,Sham,Cons,Noise,109,3,1,0.549885700107552,1
3073,55,Larynx,Sham,Cons,Noise,110,2,0,2.17760609998368,1
3074,55,Larynx,Sham,Cons,Noise,111,1,0,0.769778499961831,1
3075,55,Larynx,Sham,Cons,Noise,112,4,1,0.676096100010909,1
3076,55,Larynx,Sham,Cons,Noise,113,3,1,1.02865899994504,1
3077,55,Larynx,Sham,Cons,Noise,114,4,1,0.723657199996524,1
3078,55,Larynx,Sham,Cons,Noise,115,1,0,0.5962907000212,1
3079,55,Larynx,Sham,Cons,Noise,116,2,1,0.6238134000450369,1
3080,55,Larynx,Sham,Cons,Noise,117,3,1,0.9349468000000342,1
3081,55,Larynx,Sham,Cons,Noise,118,1,0,2.44618370011449,1
3082,55,Larynx,Sham,Cons,Noise,119,3,1,0.677113799960352,1
3083,55,Larynx,Sham,Cons,Noise,120,1,0,0.6911825001006949,1
3084,55,Larynx,Sham,Cons,Noise,121,3,1,0.577202999964356,1
3085,55,Larynx,Sham,Cons,Noise,122,2,0,0.666769899893552,1
3086,55,Larynx,Sham,Cons,Noise,123,4,1,1.42497000005096,1
3087,55,Larynx,Sham,Cons,Noise,124,4,1,0.724727199994959,1
3088,55,Larynx,Sham,Cons,Noise,125,3,1,0.645452699973248,1
3089,55,Larynx,Sham,Cons,Noise,126,3,1,1.29093769995961,1
3090,55,Larynx,Sham,Cons,Noise,127,2,1,1.46082190005109,1
3091,55,Larynx,Sham,Cons,Noise,128,4,1,0.637649500044063,1
3092,55,Larynx,Sham,Cons,Noise,129,5,1,0.603837099974044,1
3093,55,Larynx,Sham,Cons,Noise,130,2,0,0.59561289998237,1
3094,55,Larynx,Sham,Cons,Noise,131,1,0,0.6933199999621139,1
3095,55,Larynx,Sham,Cons,Noise,132,2,1,0.718388000037521,1
3096,55,Larynx,Sham,Cons,Noise,133,5,1,1.5220328000141299,1
3097,55,Larynx,Sham,Cons,Noise,134,3,1,0.9235856999875981,1
3098,55,Larynx,Sham,Cons,Noise,135,3,1,4.00040370004717,1
3099,55,Larynx,Sham,Cons,Noise,136,3,1,0.6542557999491689,1
3100,55,Larynx,Sham,Cons,Noise,137,2,1,0.596438399981707,1
3101,55,Larynx,Sham,Cons,Noise,138,3,0,0.6156042999355121,1
3102,55,Larynx,Sham,Cons,Noise,139,4,1,0.440215799957514,1
3103,55,Larynx,Sham,Cons,Noise,140,3,1,0.6647974000079561,1
3104,55,Larynx,Sham,Cons,Noise,141,4,0,0.904145500040613,1
3105,55,Larynx,Sham,Cons,Noise,142,1,1,1.8800201999256398,1
3106,55,Larynx,Sham,Cons,Noise,143,5,1,2.20679900003597,1
3107,55,Larynx,Sham,Cons,Noise,144,2,0,0.6883681999752299,1
3108,55,Larynx,Sham,Cons,Noise,145,3,1,1.21195610007271,1
3109,55,Larynx,Sham,Cons,Noise,146,4,1,0.834877700079232,1
3110,55,Larynx,Sham,Cons,Noise,147,1,0,0.5634677000343801,1
3111,55,Larynx,Sham,Cons,Noise,148,1,0,0.602815399994142,1
3112,55,Larynx,Sham,Cons,Noise,149,2,0,0.689122999901883,1
3113,55,Larynx,Sham,Cons,Noise,150,5,1,0.662343900068663,1
3114,55,Larynx,Sham,Cons,Noise,151,5,1,0.7509035000111909,1
3115,55,Larynx,Sham,Cons,Noise,152,5,1,0.5842617000453171,1
3116,55,Larynx,Sham,Cons,Noise,153,4,0,0.8468583000358191,1
3117,55,Larynx,Sham,Cons,Noise,154,3,0,0.6682752000633629,1
3118,55,Larynx,Sham,Cons,Noise,155,2,1,0.5926437999587509,1
3119,55,Larynx,Sham,Cons,Noise,156,4,1,0.897828799905255,1
4212,104,Larynx,Left cTBS,Cons,Noise,1,5,0,0.709493900067173,1
4213,104,Larynx,Left cTBS,Cons,Noise,2,4,1,0.591839300002903,1
4214,104,Larynx,Left cTBS,Cons,Noise,3,5,0,0.653036899981089,1
4215,104,Larynx,Left cTBS,Cons,Noise,4,1,0,0.5679564999882131,1
4216,104,Larynx,Left cTBS,Cons,Noise,5,3,0,0.45102229993790394,1
4217,104,Larynx,Left cTBS,Cons,Noise,6,2,0,0.47043370001483703,1
4218,104,Larynx,Left cTBS,Cons,Noise,7,3,0,0.46492550009861605,1
4219,104,Larynx,Left cTBS,Cons,Noise,8,5,0,0.44761690008453997,1
4220,104,Larynx,Left cTBS,Cons,Noise,9,2,0,0.476742899976671,1
4221,104,Larynx,Left cTBS,Cons,Noise,10,4,0,0.601282100076787,1
4222,104,Larynx,Left cTBS,Cons,Noise,11,5,1,0.6021616999059921,1
4223,104,Larynx,Left cTBS,Cons,Noise,12,2,1,0.509531499934383,1
4224,104,Larynx,Left cTBS,Cons,Noise,13,2,0,0.5480152000673121,1
4225,104,Larynx,Left cTBS,Cons,Noise,14,4,1,0.7027688000816851,1
4226,104,Larynx,Left cTBS,Cons,Noise,15,1,0,0.568107199971564,1
4227,104,Larynx,Left cTBS,Cons,Noise,16,3,0,0.596076799905859,1
4228,104,Larynx,Left cTBS,Cons,Noise,17,3,1,0.649906700011343,1
4229,104,Larynx,Left cTBS,Cons,Noise,18,3,1,0.41629780002404,1
4230,104,Larynx,Left cTBS,Cons,Noise,19,5,1,0.46307749999687103,1
4231,104,Larynx,Left cTBS,Cons,Noise,20,2,1,0.41286579996813105,1
4232,104,Larynx,Left cTBS,Cons,Noise,21,1,0,0.458467999938875,1
4233,104,Larynx,Left cTBS,Cons,Noise,22,2,0,0.415310300071724,1
4234,104,Larynx,Left cTBS,Cons,Noise,23,4,0,0.43726749997585995,1
4235,104,Larynx,Left cTBS,Cons,Noise,24,3,0,0.522813100018539,1
4236,104,Larynx,Left cTBS,Cons,Noise,25,4,1,0.49712900002487,1
4237,104,Larynx,Left cTBS,Cons,Noise,26,1,1,0.5505649000406271,1
4238,104,Larynx,Left cTBS,Cons,Noise,27,5,0,0.46660519996658006,1
4239,104,Larynx,Left cTBS,Cons,Noise,28,1,1,0.4255467000184579,1
4240,104,Larynx,Left cTBS,Cons,Noise,29,2,0,0.5663303999463101,1
4241,104,Larynx,Left cTBS,Cons,Noise,30,3,0,0.486091300030239,1
4242,104,Larynx,Left cTBS,Cons,Noise,31,4,1,0.42322100000456,1
4243,104,Larynx,Left cTBS,Cons,Noise,32,3,0,0.49407369992695704,1
4244,104,Larynx,Left cTBS,Cons,Noise,33,1,0,0.463880800059997,1
4245,104,Larynx,Left cTBS,Cons,Noise,34,4,1,0.533898300025612,1
4246,104,Larynx,Left cTBS,Cons,Noise,35,3,0,0.470045199966989,1
4247,104,Larynx,Left cTBS,Cons,Noise,36,2,0,0.571492999908514,1
4248,104,Larynx,Left cTBS,Cons,Noise,37,3,1,0.620874800020829,1
4249,104,Larynx,Left cTBS,Cons,Noise,38,4,1,0.582440200028941,1
4250,104,Larynx,Left cTBS,Cons,Noise,39,3,1,0.43527470005210495,1
4251,104,Larynx,Left cTBS,Cons,Noise,40,4,1,0.746908799977973,1
4252,104,Larynx,Left cTBS,Cons,Noise,41,2,0,0.526685199933127,1
4253,104,Larynx,Left cTBS,Cons,Noise,42,2,0,0.40314200008288004,1
4254,104,Larynx,Left cTBS,Cons,Noise,43,3,0,0.426776899956167,1
4255,104,Larynx,Left cTBS,Cons,Noise,44,3,0,0.387878899928182,1
4256,104,Larynx,Left cTBS,Cons,Noise,45,3,0,0.36859199998434605,1
4257,104,Larynx,Left cTBS,Cons,Noise,46,4,1,0.353881600080058,1
4258,104,Larynx,Left cTBS,Cons,Noise,47,1,0,0.645628400030546,1
4259,104,Larynx,Left cTBS,Cons,Noise,48,1,0,0.5453343000262979,1
4260,104,Larynx,Left cTBS,Cons,Noise,49,2,1,0.49127989995759,1
4261,104,Larynx,Left cTBS,Cons,Noise,50,2,0,0.444830100052059,1
4262,104,Larynx,Left cTBS,Cons,Noise,51,4,0,0.5061560999602079,1
4263,104,Larynx,Left cTBS,Cons,Noise,52,5,0,0.52986150002107,1
4264,104,Larynx,Left cTBS,Cons,Noise,53,5,1,0.519814100000076,1
4265,104,Larynx,Left cTBS,Cons,Noise,54,3,0,0.5035501000238579,1
4266,104,Larynx,Left cTBS,Cons,Noise,55,2,0,0.548602199996822,1
4267,104,Larynx,Left cTBS,Cons,Noise,56,4,1,0.40615599998273,1
4268,104,Larynx,Left cTBS,Cons,Noise,57,1,1,0.5223781999666239,1
4269,104,Larynx,Left cTBS,Cons,Noise,58,1,0,0.601741600083187,1
4270,104,Larynx,Left cTBS,Cons,Noise,59,3,0,0.3697076999815179,1
4271,104,Larynx,Left cTBS,Cons,Noise,60,3,1,0.47849989996757397,1
4272,104,Larynx,Left cTBS,Cons,Noise,61,2,1,0.578231199993752,1
4273,104,Larynx,Left cTBS,Cons,Noise,62,5,1,0.568857699981891,1
4274,104,Larynx,Left cTBS,Cons,Noise,63,4,0,0.487831500009634,1
4275,104,Larynx,Left cTBS,Cons,Noise,64,5,0,0.48504729999695,1
4276,104,Larynx,Left cTBS,Cons,Noise,65,3,0,0.431842699996196,1
4277,104,Larynx,Left cTBS,Cons,Noise,66,4,0,0.5479342000326141,1
4278,104,Larynx,Left cTBS,Cons,Noise,67,3,1,0.598939500050619,1
4279,104,Larynx,Left cTBS,Cons,Noise,68,1,1,0.525670100003481,1
4280,104,Larynx,Left cTBS,Cons,Noise,69,5,0,0.40423009998630705,1
4281,104,Larynx,Left cTBS,Cons,Noise,70,1,0,0.511873899959028,1
4282,104,Larynx,Left cTBS,Cons,Noise,71,3,0,0.4140272999648,1
4283,104,Larynx,Left cTBS,Cons,Noise,72,5,0,0.48169779998715995,1
4284,104,Larynx,Left cTBS,Cons,Noise,73,3,0,0.44599479995667896,1
4285,104,Larynx,Left cTBS,Cons,Noise,74,3,1,0.494179499917664,1
4286,104,Larynx,Left cTBS,Cons,Noise,75,2,0,0.380751400021836,1
4287,104,Larynx,Left cTBS,Cons,Noise,76,4,1,0.448965799994767,1
4288,104,Larynx,Left cTBS,Cons,Noise,77,2,1,0.481432400061749,1
4289,104,Larynx,Left cTBS,Cons,Noise,78,4,1,0.480956500046887,1
4290,104,Larynx,Left cTBS,Cons,Noise,79,2,0,0.572629500064068,1
4291,104,Larynx,Left cTBS,Cons,Noise,80,3,0,0.504189800005406,1
4292,104,Larynx,Left cTBS,Cons,Noise,81,5,0,0.5209788000211121,1
4293,104,Larynx,Left cTBS,Cons,Noise,82,4,0,0.475210500066169,1
4294,104,Larynx,Left cTBS,Cons,Noise,83,1,0,0.423752799979411,1
4295,104,Larynx,Left cTBS,Cons,Noise,84,2,0,0.42129349999595395,1
4296,104,Larynx,Left cTBS,Cons,Noise,85,5,1,0.443466600030661,1
4297,104,Larynx,Left cTBS,Cons,Noise,86,1,1,0.4579464999260379,1
4298,104,Larynx,Left cTBS,Cons,Noise,87,3,1,0.433489400078543,1
4299,104,Larynx,Left cTBS,Cons,Noise,88,1,0,0.702547000022605,1
4300,104,Larynx,Left cTBS,Cons,Noise,89,3,0,0.427793800015934,1
4301,104,Larynx,Left cTBS,Cons,Noise,90,1,1,0.453060399973765,1
4302,104,Larynx,Left cTBS,Cons,Noise,91,4,0,0.557026499998756,1
4303,104,Larynx,Left cTBS,Cons,Noise,92,5,1,0.409628699999303,1
4304,104,Larynx,Left cTBS,Cons,Noise,93,4,1,0.43022209999617206,1
4305,104,Larynx,Left cTBS,Cons,Noise,94,4,1,0.43069869989994897,1
4306,104,Larynx,Left cTBS,Cons,Noise,95,5,0,0.45525700005236996,1
4307,104,Larynx,Left cTBS,Cons,Noise,96,2,0,0.435913700028323,1
4308,104,Larynx,Left cTBS,Cons,Noise,97,2,0,0.455056300037541,1
4309,104,Larynx,Left cTBS,Cons,Noise,98,5,0,0.506926299887709,1
4310,104,Larynx,Left cTBS,Cons,Noise,99,3,1,0.41146909992676206,1
4311,104,Larynx,Left cTBS,Cons,Noise,100,3,0,0.5578043999848891,1
4312,104,Larynx,Left cTBS,Cons,Noise,101,4,0,0.537174600060098,1
4313,104,Larynx,Left cTBS,Cons,Noise,102,2,0,0.48560610006097704,1
4314,104,Larynx,Left cTBS,Cons,Noise,103,2,1,0.44215749995783,1
4315,104,Larynx,Left cTBS,Cons,Noise,104,1,0,0.6165706999599929,1
4316,104,Larynx,Left cTBS,Cons,Noise,105,4,1,0.549031400005333,1
4317,104,Larynx,Left cTBS,Cons,Noise,106,3,0,0.4104989999905229,1
4318,104,Larynx,Left cTBS,Cons,Noise,107,3,1,0.513742999988608,1
4319,104,Larynx,Left cTBS,Cons,Noise,108,3,0,0.44482749991584597,1
4320,104,Larynx,Left cTBS,Cons,Noise,109,4,0,0.453622900065966,1
4321,104,Larynx,Left cTBS,Cons,Noise,110,5,1,0.46200020005926506,1
4322,104,Larynx,Left cTBS,Cons,Noise,111,2,0,0.5296628000214699,1
4323,104,Larynx,Left cTBS,Cons,Noise,112,2,1,0.472464099992067,1
4324,104,Larynx,Left cTBS,Cons,Noise,113,3,1,0.487814400112256,1
4325,104,Larynx,Left cTBS,Cons,Noise,114,3,0,0.500485299970023,1
4326,104,Larynx,Left cTBS,Cons,Noise,115,3,1,0.47724919999018295,1
4327,104,Larynx,Left cTBS,Cons,Noise,116,1,0,0.5127769000828271,1
4328,104,Larynx,Left cTBS,Cons,Noise,117,4,0,0.610110600013286,1
4329,104,Larynx,Left cTBS,Cons,Noise,118,2,1,0.712593199918047,1
4330,104,Larynx,Left cTBS,Cons,Noise,119,4,1,0.37173360004089795,1
4331,104,Larynx,Left cTBS,Cons,Noise,120,2,1,0.432502100011334,1
4332,104,Larynx,Left cTBS,Cons,Noise,121,3,1,0.4753966999705879,1
4333,104,Larynx,Left cTBS,Cons,Noise,122,2,0,0.547836699988693,1
4334,104,Larynx,Left cTBS,Cons,Noise,123,5,0,0.42206879996229,1
4335,104,Larynx,Left cTBS,Cons,Noise,124,3,1,0.462141199968755,1
4336,104,Larynx,Left cTBS,Cons,Noise,125,5,0,0.41097039997112,1
4337,104,Larynx,Left cTBS,Cons,Noise,126,4,1,0.483204400050454,1
4338,104,Larynx,Left cTBS,Cons,Noise,127,4,1,0.666140899993479,1
4339,104,Larynx,Left cTBS,Cons,Noise,128,1,0,0.47500149998813895,1
4340,104,Larynx,Left cTBS,Cons,Noise,129,3,0,0.44312660000286996,1
4341,104,Larynx,Left cTBS,Cons,Noise,130,5,1,0.47058680001646297,1
4342,104,Larynx,Left cTBS,Cons,Noise,131,4,1,0.37318739993497707,1
4343,104,Larynx,Left cTBS,Cons,Noise,132,2,0,0.328085799934343,1
4344,104,Larynx,Left cTBS,Cons,Noise,133,3,0,0.34708779992070005,1
4345,104,Larynx,Left cTBS,Cons,Noise,134,2,0,0.3963968999451029,1
4346,104,Larynx,Left cTBS,Cons,Noise,135,5,1,0.419994199997745,1
4347,104,Larynx,Left cTBS,Cons,Noise,136,3,1,0.38723270001355603,1
4348,104,Larynx,Left cTBS,Cons,Noise,137,3,0,0.415992800029926,1
4349,104,Larynx,Left cTBS,Cons,Noise,138,2,1,0.384182199952193,1
4350,104,Larynx,Left cTBS,Cons,Noise,139,1,1,0.377935099997558,1
4351,104,Larynx,Left cTBS,Cons,Noise,140,4,0,0.41825569991488004,1
4352,104,Larynx,Left cTBS,Cons,Noise,141,1,0,0.389984200010076,1
4353,104,Larynx,Left cTBS,Cons,Noise,142,3,0,0.405759699991904,1
4354,104,Larynx,Left cTBS,Cons,Noise,143,4,1,0.38432059995830103,1
4355,104,Larynx,Left cTBS,Cons,Noise,144,4,1,0.414518299978226,1
4356,104,Larynx,Left cTBS,Cons,Noise,145,1,1,0.39297799998894295,1
4357,104,Larynx,Left cTBS,Cons,Noise,146,2,0,0.45219890004955204,1
4358,104,Larynx,Left cTBS,Cons,Noise,147,3,0,0.414772600051947,1
4359,104,Larynx,Left cTBS,Cons,Noise,148,5,0,0.38805229996796703,1
4360,104,Larynx,Left cTBS,Cons,Noise,149,4,1,0.6184739000163969,1
4361,104,Larynx,Left cTBS,Cons,Noise,150,5,1,0.501724900095724,1
4362,104,Larynx,Left cTBS,Cons,Noise,151,3,1,0.48853510001208605,1
4363,104,Larynx,Left cTBS,Cons,Noise,152,2,0,0.4573875999776649,1
4364,104,Larynx,Left cTBS,Cons,Noise,153,3,1,0.586479600053281,1
4365,104,Larynx,Left cTBS,Cons,Noise,154,3,1,0.552161499974318,1
4366,104,Larynx,Left cTBS,Cons,Noise,155,1,0,0.465029499959201,1
4367,104,Larynx,Left cTBS,Cons,Noise,156,1,0,0.491255200002342,1
6084,104,Larynx,Sham,Cons,Noise,1,3,1,0.7045690999948421,1
6085,104,Larynx,Sham,Cons,Noise,2,4,0,0.634262199979275,1
6086,104,Larynx,Sham,Cons,Noise,3,4,0,0.5703164000296971,1
6087,104,Larynx,Sham,Cons,Noise,4,5,0,0.599460900004487,1
6088,104,Larynx,Sham,Cons,Noise,5,4,0,0.511945899983402,1
6089,104,Larynx,Sham,Cons,Noise,6,4,0,0.603185699961614,1
6090,104,Larynx,Sham,Cons,Noise,7,5,0,0.527800299983937,1
6091,104,Larynx,Sham,Cons,Noise,8,5,0,0.58426709997002,1
6092,104,Larynx,Sham,Cons,Noise,9,1,0,0.5979781000060029,1
6093,104,Larynx,Sham,Cons,Noise,10,3,1,0.534125999954995,1
6094,104,Larynx,Sham,Cons,Noise,11,5,0,0.620738499972504,1
6095,104,Larynx,Sham,Cons,Noise,12,2,1,0.6293386000324971,1
6096,104,Larynx,Sham,Cons,Noise,13,3,0,0.7168330000131391,1
6097,104,Larynx,Sham,Cons,Noise,14,1,0,0.46161960001336405,1
6098,104,Larynx,Sham,Cons,Noise,15,1,0,0.530113900022116,1
6099,104,Larynx,Sham,Cons,Noise,16,2,0,0.494081200042274,1
6100,104,Larynx,Sham,Cons,Noise,17,3,1,0.533794199989643,1
6101,104,Larynx,Sham,Cons,Noise,18,1,0,0.51757909997832,1
6102,104,Larynx,Sham,Cons,Noise,19,3,0,0.45426359999692106,1
6103,104,Larynx,Sham,Cons,Noise,20,3,0,0.44711270002881104,1
6104,104,Larynx,Sham,Cons,Noise,21,3,1,0.628207800036762,1
6105,104,Larynx,Sham,Cons,Noise,22,4,0,0.440477399970405,1
6106,104,Larynx,Sham,Cons,Noise,23,4,0,0.5962762000272049,1
6107,104,Larynx,Sham,Cons,Noise,24,5,0,0.42224909999640703,1
6108,104,Larynx,Sham,Cons,Noise,25,3,1,0.530301199993119,1
6109,104,Larynx,Sham,Cons,Noise,26,3,0,0.632508200011216,1
6110,104,Larynx,Sham,Cons,Noise,27,3,0,0.6550667000119571,1
6111,104,Larynx,Sham,Cons,Noise,28,1,0,0.45015330001479,1
6112,104,Larynx,Sham,Cons,Noise,29,4,0,0.5230055000283761,1
6113,104,Larynx,Sham,Cons,Noise,30,2,1,0.543967099976726,1
6114,104,Larynx,Sham,Cons,Noise,31,2,1,0.5515941999619829,1
6115,104,Larynx,Sham,Cons,Noise,32,3,0,0.537191899958998,1
6116,104,Larynx,Sham,Cons,Noise,33,4,1,0.501836399955209,1
6117,104,Larynx,Sham,Cons,Noise,34,5,1,0.528931399981957,1
6118,104,Larynx,Sham,Cons,Noise,35,2,1,0.44477000000188105,1
6119,104,Larynx,Sham,Cons,Noise,36,2,0,0.459890900005121,1
6120,104,Larynx,Sham,Cons,Noise,37,2,0,0.5159979000454771,1
6121,104,Larynx,Sham,Cons,Noise,38,1,1,0.553571099997498,1
6122,104,Larynx,Sham,Cons,Noise,39,2,1,0.779230100044515,1
6123,104,Larynx,Sham,Cons,Noise,40,4,0,0.5388267000089401,1
6124,104,Larynx,Sham,Cons,Noise,41,3,1,0.534894999989774,1
6125,104,Larynx,Sham,Cons,Noise,42,4,0,0.539222899999004,1
6126,104,Larynx,Sham,Cons,Noise,43,1,0,0.47255900001619006,1
6127,104,Larynx,Sham,Cons,Noise,44,1,0,0.45865779998712203,1
6128,104,Larynx,Sham,Cons,Noise,45,2,0,0.502764799981378,1
6129,104,Larynx,Sham,Cons,Noise,46,4,1,0.552478400000837,1
6130,104,Larynx,Sham,Cons,Noise,47,4,1,0.6155131999985309,1
6131,104,Larynx,Sham,Cons,Noise,48,5,0,0.527389099996071,1
6132,104,Larynx,Sham,Cons,Noise,49,4,0,0.472957799967844,1
6133,104,Larynx,Sham,Cons,Noise,50,2,0,0.483382100006565,1
6134,104,Larynx,Sham,Cons,Noise,51,1,0,0.45825669995974705,1
6135,104,Larynx,Sham,Cons,Noise,52,3,0,0.45981019997270794,1
6136,104,Larynx,Sham,Cons,Noise,53,5,1,0.534039199992549,1
6137,104,Larynx,Sham,Cons,Noise,54,2,0,0.437905700004194,1
6138,104,Larynx,Sham,Cons,Noise,55,2,1,0.42867920000571796,1
6139,104,Larynx,Sham,Cons,Noise,56,3,0,0.52454700000817,1
6140,104,Larynx,Sham,Cons,Noise,57,5,1,0.5682513000210749,1
6141,104,Larynx,Sham,Cons,Noise,58,3,0,0.47677070001373106,1
6142,104,Larynx,Sham,Cons,Noise,59,3,1,0.47844120004447205,1
6143,104,Larynx,Sham,Cons,Noise,60,2,0,0.542068700015079,1
6144,104,Larynx,Sham,Cons,Noise,61,3,0,0.44582880003145003,1
6145,104,Larynx,Sham,Cons,Noise,62,4,1,0.6243189999950121,1
6146,104,Larynx,Sham,Cons,Noise,63,3,0,0.511955499998294,1
6147,104,Larynx,Sham,Cons,Noise,64,5,0,0.429022299998906,1
6148,104,Larynx,Sham,Cons,Noise,65,3,0,0.556059200025629,1
6149,104,Larynx,Sham,Cons,Noise,66,3,1,0.5630203000037,1
6150,104,Larynx,Sham,Cons,Noise,67,4,1,0.637968500028364,1
6151,104,Larynx,Sham,Cons,Noise,68,1,0,0.457292900013272,1
6152,104,Larynx,Sham,Cons,Noise,69,3,1,0.515682599972934,1
6153,104,Larynx,Sham,Cons,Noise,70,5,0,0.42332499998156,1
6154,104,Larynx,Sham,Cons,Noise,71,3,0,0.514826600032393,1
6155,104,Larynx,Sham,Cons,Noise,72,4,0,0.5344845000072379,1
6156,104,Larynx,Sham,Cons,Noise,73,5,1,0.48898859997279903,1
6157,104,Larynx,Sham,Cons,Noise,74,2,0,0.482253200025298,1
6158,104,Larynx,Sham,Cons,Noise,75,1,0,0.591645699983928,1
6159,104,Larynx,Sham,Cons,Noise,76,2,0,0.591217699984554,1
6160,104,Larynx,Sham,Cons,Noise,77,1,1,0.561980600003153,1
6161,104,Larynx,Sham,Cons,Noise,78,2,0,0.5519636999815699,1
6162,104,Larynx,Sham,Cons,Noise,79,5,0,0.357279099989682,1
6163,104,Larynx,Sham,Cons,Noise,80,2,0,0.493081099994015,1
6164,104,Larynx,Sham,Cons,Noise,81,2,0,0.554301299969666,1
6165,104,Larynx,Sham,Cons,Noise,82,2,1,0.555633499985561,1
6166,104,Larynx,Sham,Cons,Noise,83,4,0,0.466396099945996,1
6167,104,Larynx,Sham,Cons,Noise,84,2,0,0.502558099979069,1
6168,104,Larynx,Sham,Cons,Noise,85,2,0,0.5941675000358371,1
6169,104,Larynx,Sham,Cons,Noise,86,1,0,0.601374100020621,1
6170,104,Larynx,Sham,Cons,Noise,87,5,1,0.508793399960268,1
6171,104,Larynx,Sham,Cons,Noise,88,5,0,0.457331000012346,1
6172,104,Larynx,Sham,Cons,Noise,89,3,0,0.438295900006779,1
6173,104,Larynx,Sham,Cons,Noise,90,3,1,0.47956039995187894,1
6174,104,Larynx,Sham,Cons,Noise,91,3,0,0.48083079996286,1
6175,104,Larynx,Sham,Cons,Noise,92,4,0,0.41261810000287397,1
6176,104,Larynx,Sham,Cons,Noise,93,4,0,0.429835400020238,1
6177,104,Larynx,Sham,Cons,Noise,94,5,0,0.5059906999813389,1
6178,104,Larynx,Sham,Cons,Noise,95,4,1,0.659797900007106,1
6179,104,Larynx,Sham,Cons,Noise,96,5,0,0.5132905000355089,1
6180,104,Larynx,Sham,Cons,Noise,97,1,0,0.5569985000183809,1
6181,104,Larynx,Sham,Cons,Noise,98,3,1,0.5106844999827439,1
6182,104,Larynx,Sham,Cons,Noise,99,1,0,0.5829418000066651,1
6183,104,Larynx,Sham,Cons,Noise,100,3,0,0.518174399971031,1
6184,104,Larynx,Sham,Cons,Noise,101,1,0,0.48493139998754503,1
6185,104,Larynx,Sham,Cons,Noise,102,4,0,0.479815999977291,1
6186,104,Larynx,Sham,Cons,Noise,103,3,1,0.527302199974656,1
6187,104,Larynx,Sham,Cons,Noise,104,4,0,0.530944800004363,1
6188,104,Larynx,Sham,Cons,Noise,105,2,0,0.46577080001588894,1
6189,104,Larynx,Sham,Cons,Noise,106,3,0,0.49391679995460397,1
6190,104,Larynx,Sham,Cons,Noise,107,3,1,0.624888199963607,1
6191,104,Larynx,Sham,Cons,Noise,108,5,1,0.519102799997199,1
6192,104,Larynx,Sham,Cons,Noise,109,3,0,0.5277508999570271,1
6193,104,Larynx,Sham,Cons,Noise,110,2,1,0.44157199998153396,1
6194,104,Larynx,Sham,Cons,Noise,111,1,1,0.535268299980089,1
6195,104,Larynx,Sham,Cons,Noise,112,4,1,0.550816199975088,1
6196,104,Larynx,Sham,Cons,Noise,113,3,1,0.46919809997780204,1
6197,104,Larynx,Sham,Cons,Noise,114,4,1,0.47575400001369395,1
6198,104,Larynx,Sham,Cons,Noise,115,1,0,0.599771199980751,1
6199,104,Larynx,Sham,Cons,Noise,116,2,0,0.5917376999859699,1
6200,104,Larynx,Sham,Cons,Noise,117,3,1,0.43823280005017295,1
6201,104,Larynx,Sham,Cons,Noise,118,1,0,0.544654599973001,1
6202,104,Larynx,Sham,Cons,Noise,119,3,1,0.33843790000537394,1
6203,104,Larynx,Sham,Cons,Noise,120,1,0,0.546127800014801,1
6204,104,Larynx,Sham,Cons,Noise,121,3,1,0.42572310002287894,1
6205,104,Larynx,Sham,Cons,Noise,122,2,0,0.514027600002009,1
6206,104,Larynx,Sham,Cons,Noise,123,4,1,0.501942200004123,1
6207,104,Larynx,Sham,Cons,Noise,124,4,1,0.49466529994970204,1
6208,104,Larynx,Sham,Cons,Noise,125,3,1,0.413927000015974,1
6209,104,Larynx,Sham,Cons,Noise,126,3,0,0.481450100021902,1
6210,104,Larynx,Sham,Cons,Noise,127,2,1,0.46849230001680603,1
6211,104,Larynx,Sham,Cons,Noise,128,4,0,0.6142665999941529,1
6212,104,Larynx,Sham,Cons,Noise,129,5,1,0.489970700000413,1
6213,104,Larynx,Sham,Cons,Noise,130,2,0,0.5460037000011649,1
6214,104,Larynx,Sham,Cons,Noise,131,1,0,0.586930599994957,1
6215,104,Larynx,Sham,Cons,Noise,132,2,1,0.505853400041815,1
6216,104,Larynx,Sham,Cons,Noise,133,5,0,0.589659099990968,1
6217,104,Larynx,Sham,Cons,Noise,134,3,0,0.5287172999815081,1
6218,104,Larynx,Sham,Cons,Noise,135,3,0,0.656450099952053,1
6219,104,Larynx,Sham,Cons,Noise,136,3,1,0.47566120000556106,1
6220,104,Larynx,Sham,Cons,Noise,137,2,0,0.606983600009698,1
6221,104,Larynx,Sham,Cons,Noise,138,3,0,0.506654200027697,1
6222,104,Larynx,Sham,Cons,Noise,139,4,1,0.5446915000211451,1
6223,104,Larynx,Sham,Cons,Noise,140,3,0,0.48069389996817297,1
6224,104,Larynx,Sham,Cons,Noise,141,4,1,0.574376399978064,1
6225,104,Larynx,Sham,Cons,Noise,142,1,0,0.5443946999730539,1
6226,104,Larynx,Sham,Cons,Noise,143,5,0,0.484956400003284,1
6227,104,Larynx,Sham,Cons,Noise,144,2,0,0.49901450000470504,1
6228,104,Larynx,Sham,Cons,Noise,145,3,0,0.62965230003465,1
6229,104,Larynx,Sham,Cons,Noise,146,4,1,0.6098899000207889,1
6230,104,Larynx,Sham,Cons,Noise,147,1,0,0.546970000024885,1
6231,104,Larynx,Sham,Cons,Noise,148,1,0,0.53007479995722,1
6232,104,Larynx,Sham,Cons,Noise,149,2,0,0.583951300010085,1
6233,104,Larynx,Sham,Cons,Noise,150,5,1,0.519449100014754,1
6234,104,Larynx,Sham,Cons,Noise,151,5,1,0.5844054999761279,1
6235,104,Larynx,Sham,Cons,Noise,152,5,1,0.464420700038318,1
6236,104,Larynx,Sham,Cons,Noise,153,4,0,0.7181364999851211,1
6237,104,Larynx,Sham,Cons,Noise,154,3,1,0.530419800023083,1
6238,104,Larynx,Sham,Cons,Noise,155,2,1,0.447187699959613,1
6239,104,Larynx,Sham,Cons,Noise,156,4,0,0.503069400030654,1
7332,123,Larynx,Left cTBS,Cons,Noise,1,3,1,0.816298999998253,1
7333,123,Larynx,Left cTBS,Cons,Noise,2,4,1,0.913715900009265,1
7334,123,Larynx,Left cTBS,Cons,Noise,3,4,1,0.7302029999846129,1
7335,123,Larynx,Left cTBS,Cons,Noise,4,5,1,0.7753064999997149,1
7336,123,Larynx,Left cTBS,Cons,Noise,5,4,1,1.3550783999962699,1
7337,123,Larynx,Left cTBS,Cons,Noise,6,4,1,0.939049299980979,1
7338,123,Larynx,Left cTBS,Cons,Noise,7,5,1,0.5246093999885489,1
7339,123,Larynx,Left cTBS,Cons,Noise,8,5,1,0.400217099988367,1
7340,123,Larynx,Left cTBS,Cons,Noise,9,1,0,0.8073352999927009,1
7341,123,Larynx,Left cTBS,Cons,Noise,10,3,1,0.5665520000038671,1
7342,123,Larynx,Left cTBS,Cons,Noise,11,5,1,0.46210430000792296,1
7343,123,Larynx,Left cTBS,Cons,Noise,12,2,1,0.383342899993295,1
7344,123,Larynx,Left cTBS,Cons,Noise,13,3,1,0.5885787000006529,1
7345,123,Larynx,Left cTBS,Cons,Noise,14,1,0,0.545843999978388,1
7346,123,Larynx,Left cTBS,Cons,Noise,15,1,1,0.442224400001578,1
7347,123,Larynx,Left cTBS,Cons,Noise,16,2,1,0.545550000009825,1
7348,123,Larynx,Left cTBS,Cons,Noise,17,3,1,0.41957630001707,1
7349,123,Larynx,Left cTBS,Cons,Noise,18,1,1,0.796501199976774,1
7350,123,Larynx,Left cTBS,Cons,Noise,19,3,1,0.5460247000155499,1
7351,123,Larynx,Left cTBS,Cons,Noise,20,3,1,0.530882899998687,1
7352,123,Larynx,Left cTBS,Cons,Noise,21,3,1,0.770878400013316,1
7353,123,Larynx,Left cTBS,Cons,Noise,22,4,1,0.641216399992118,1
7354,123,Larynx,Left cTBS,Cons,Noise,23,4,1,0.587945700011915,1
7355,123,Larynx,Left cTBS,Cons,Noise,24,5,1,0.5939142999995971,1
7356,123,Larynx,Left cTBS,Cons,Noise,25,3,1,0.5541885000129699,1
7357,123,Larynx,Left cTBS,Cons,Noise,26,3,1,0.8111247000051659,1
7358,123,Larynx,Left cTBS,Cons,Noise,27,3,1,0.862603500019759,1
7359,123,Larynx,Left cTBS,Cons,Noise,28,1,0,0.792174799978966,1
7360,123,Larynx,Left cTBS,Cons,Noise,29,4,1,0.505754500016337,1
7361,123,Larynx,Left cTBS,Cons,Noise,30,2,1,0.439771000004839,1
7362,123,Larynx,Left cTBS,Cons,Noise,31,2,1,0.49510790000203997,1
7363,123,Larynx,Left cTBS,Cons,Noise,32,3,1,1.01385200000368,1
7364,123,Larynx,Left cTBS,Cons,Noise,33,4,1,0.610419800010277,1
7365,123,Larynx,Left cTBS,Cons,Noise,34,5,1,0.50516269999207,1
7366,123,Larynx,Left cTBS,Cons,Noise,35,2,1,0.672891100024572,1
7367,123,Larynx,Left cTBS,Cons,Noise,36,2,0,0.616862900002161,1
7368,123,Larynx,Left cTBS,Cons,Noise,37,2,1,0.52042149999761,1
7369,123,Larynx,Left cTBS,Cons,Noise,38,1,0,0.697024299995974,1
7370,123,Larynx,Left cTBS,Cons,Noise,39,2,0,0.729865700006485,1
7371,123,Larynx,Left cTBS,Cons,Noise,40,4,1,0.5425639000022779,1
7372,123,Larynx,Left cTBS,Cons,Noise,41,3,1,0.393482000014046,1
7373,123,Larynx,Left cTBS,Cons,Noise,42,4,1,0.608186199999182,1
7374,123,Larynx,Left cTBS,Cons,Noise,43,1,0,0.8041051999898629,1
7375,123,Larynx,Left cTBS,Cons,Noise,44,1,0,0.7883710000023709,1
7376,123,Larynx,Left cTBS,Cons,Noise,45,2,1,0.8415239999885671,1
7377,123,Larynx,Left cTBS,Cons,Noise,46,4,1,0.548943500005407,1
7378,123,Larynx,Left cTBS,Cons,Noise,47,4,1,0.834517299983418,1
7379,123,Larynx,Left cTBS,Cons,Noise,48,5,1,0.44517779999296203,1
7380,123,Larynx,Left cTBS,Cons,Noise,49,4,1,0.6446425000031011,1
7381,123,Larynx,Left cTBS,Cons,Noise,50,2,1,0.5590202000166761,1
7382,123,Larynx,Left cTBS,Cons,Noise,51,1,0,0.724613499973202,1
7383,123,Larynx,Left cTBS,Cons,Noise,52,3,1,0.452032200002577,1
7384,123,Larynx,Left cTBS,Cons,Noise,53,5,1,0.49978549999650607,1
7385,123,Larynx,Left cTBS,Cons,Noise,54,2,1,0.52640619999147,1
7386,123,Larynx,Left cTBS,Cons,Noise,55,2,1,1.03666720000911,1
7387,123,Larynx,Left cTBS,Cons,Noise,56,3,1,0.5123543000081551,1
7388,123,Larynx,Left cTBS,Cons,Noise,57,5,1,0.7457527999940792,1
7389,123,Larynx,Left cTBS,Cons,Noise,58,3,1,0.762910999997985,1
7390,123,Larynx,Left cTBS,Cons,Noise,59,3,1,0.5664601000025871,1
7391,123,Larynx,Left cTBS,Cons,Noise,60,2,1,1.06745729999966,1
7392,123,Larynx,Left cTBS,Cons,Noise,61,3,1,0.9636602000100541,1
7393,123,Larynx,Left cTBS,Cons,Noise,62,4,1,0.883576399995945,1
7394,123,Larynx,Left cTBS,Cons,Noise,63,3,1,0.8496821000007909,1
7395,123,Larynx,Left cTBS,Cons,Noise,64,5,1,1.06774040000164,1
7396,123,Larynx,Left cTBS,Cons,Noise,65,3,1,1.8867401000170498,1
7397,123,Larynx,Left cTBS,Cons,Noise,66,3,1,0.836749700014479,1
7398,123,Larynx,Left cTBS,Cons,Noise,67,4,0,1.01862489999621,1
7399,123,Larynx,Left cTBS,Cons,Noise,68,1,0,0.7179736000252891,1
7400,123,Larynx,Left cTBS,Cons,Noise,69,3,0,0.7506752999906892,1
7401,123,Larynx,Left cTBS,Cons,Noise,70,5,1,0.662199700018391,1
7402,123,Larynx,Left cTBS,Cons,Noise,71,3,1,0.648413500020979,1
7403,123,Larynx,Left cTBS,Cons,Noise,72,4,1,0.504917799989926,1
7404,123,Larynx,Left cTBS,Cons,Noise,73,5,1,0.5761234000092371,1
7405,123,Larynx,Left cTBS,Cons,Noise,74,2,1,0.944026499986649,1
7406,123,Larynx,Left cTBS,Cons,Noise,75,1,0,0.7852755000058101,1
7407,123,Larynx,Left cTBS,Cons,Noise,76,2,0,0.715895999979693,1
7408,123,Larynx,Left cTBS,Cons,Noise,77,1,0,0.763891999988118,1
7409,123,Larynx,Left cTBS,Cons,Noise,78,2,0,1.3009756999963402,1
7410,123,Larynx,Left cTBS,Cons,Noise,79,5,1,0.565629799995804,1
7411,123,Larynx,Left cTBS,Cons,Noise,80,2,1,0.6929519000113941,1
7412,123,Larynx,Left cTBS,Cons,Noise,81,2,1,0.886231299984502,1
7413,123,Larynx,Left cTBS,Cons,Noise,82,2,1,0.5535931000194979,1
7414,123,Larynx,Left cTBS,Cons,Noise,83,4,1,0.42065909999655604,1
7415,123,Larynx,Left cTBS,Cons,Noise,84,2,1,0.849688399990555,1
7416,123,Larynx,Left cTBS,Cons,Noise,85,2,1,1.02070329998969,1
7417,123,Larynx,Left cTBS,Cons,Noise,86,1,0,1.09307020000415,1
7418,123,Larynx,Left cTBS,Cons,Noise,87,5,1,0.5720331999764311,1
7419,123,Larynx,Left cTBS,Cons,Noise,88,5,1,0.418439100001706,1
7420,123,Larynx,Left cTBS,Cons,Noise,89,3,1,0.5966886999958659,1
7421,123,Larynx,Left cTBS,Cons,Noise,90,3,1,0.607016900001327,1
7422,123,Larynx,Left cTBS,Cons,Noise,91,3,1,0.587019700004021,1
7423,123,Larynx,Left cTBS,Cons,Noise,92,4,1,0.855390799988527,1
7424,123,Larynx,Left cTBS,Cons,Noise,93,4,1,0.67089589999523,1
7425,123,Larynx,Left cTBS,Cons,Noise,94,5,1,0.675229300017236,1
7426,123,Larynx,Left cTBS,Cons,Noise,95,4,1,0.8539700999972409,1
7427,123,Larynx,Left cTBS,Cons,Noise,96,5,1,0.8151257999998051,1
7428,123,Larynx,Left cTBS,Cons,Noise,97,1,0,0.719777999998769,1
7429,123,Larynx,Left cTBS,Cons,Noise,98,3,1,0.61588440000196,1
7430,123,Larynx,Left cTBS,Cons,Noise,99,1,0,0.9681982000183779,1
7431,123,Larynx,Left cTBS,Cons,Noise,100,3,1,0.59406860001036,1
7432,123,Larynx,Left cTBS,Cons,Noise,101,1,1,0.431546899984824,1
7433,123,Larynx,Left cTBS,Cons,Noise,102,4,1,0.363479000021471,1
7434,123,Larynx,Left cTBS,Cons,Noise,103,3,1,0.467033099994296,1
7435,123,Larynx,Left cTBS,Cons,Noise,104,4,1,0.438048500014702,1
7436,123,Larynx,Left cTBS,Cons,Noise,105,2,1,0.41021540001384005,1
7437,123,Larynx,Left cTBS,Cons,Noise,106,3,1,0.651768099982291,1
7438,123,Larynx,Left cTBS,Cons,Noise,107,3,1,0.80168470001081,1
7439,123,Larynx,Left cTBS,Cons,Noise,108,5,1,0.719338700000662,1
7440,123,Larynx,Left cTBS,Cons,Noise,109,3,1,0.9680910000170121,1
7441,123,Larynx,Left cTBS,Cons,Noise,110,2,0,1.10730140001397,1
7442,123,Larynx,Left cTBS,Cons,Noise,111,1,0,1.35529249999672,1
7443,123,Larynx,Left cTBS,Cons,Noise,112,4,1,0.501603400014574,1
7444,123,Larynx,Left cTBS,Cons,Noise,113,3,1,0.41156870001577794,1
7445,123,Larynx,Left cTBS,Cons,Noise,114,4,1,0.541698999993969,1
7446,123,Larynx,Left cTBS,Cons,Noise,115,1,0,0.8744144999946,1
7447,123,Larynx,Left cTBS,Cons,Noise,116,2,0,0.7360668000183069,1
7448,123,Larynx,Left cTBS,Cons,Noise,117,3,1,0.47452670001075603,1
7449,123,Larynx,Left cTBS,Cons,Noise,118,1,1,0.352063400001498,1
7450,123,Larynx,Left cTBS,Cons,Noise,119,3,1,0.505176300008316,1
7451,123,Larynx,Left cTBS,Cons,Noise,120,1,0,0.793253800016828,1
7452,123,Larynx,Left cTBS,Cons,Noise,121,3,1,0.5197415000002371,1
7453,123,Larynx,Left cTBS,Cons,Noise,122,2,1,0.405689699982759,1
7454,123,Larynx,Left cTBS,Cons,Noise,123,4,1,0.511307899985695,1
7455,123,Larynx,Left cTBS,Cons,Noise,124,4,1,0.6191231000120749,1
7456,123,Larynx,Left cTBS,Cons,Noise,125,3,1,0.42860679997829704,1
7457,123,Larynx,Left cTBS,Cons,Noise,126,3,1,0.5111318999843211,1
7458,123,Larynx,Left cTBS,Cons,Noise,127,2,1,0.484790699993027,1
7459,123,Larynx,Left cTBS,Cons,Noise,128,4,1,0.529784000013024,1
7460,123,Larynx,Left cTBS,Cons,Noise,129,5,1,0.5907203000097071,1
7461,123,Larynx,Left cTBS,Cons,Noise,130,2,1,0.582342299981974,1
7462,123,Larynx,Left cTBS,Cons,Noise,131,1,0,0.757367200014414,1
7463,123,Larynx,Left cTBS,Cons,Noise,132,2,1,0.7744461999973281,1
7464,123,Larynx,Left cTBS,Cons,Noise,133,5,1,0.630081599985715,1
7465,123,Larynx,Left cTBS,Cons,Noise,134,3,1,0.6295410000020639,1
7466,123,Larynx,Left cTBS,Cons,Noise,135,3,1,1.15486779998173,1
7467,123,Larynx,Left cTBS,Cons,Noise,136,3,1,0.872294000000693,1
7468,123,Larynx,Left cTBS,Cons,Noise,137,2,0,0.8334565999975891,1
7469,123,Larynx,Left cTBS,Cons,Noise,138,3,1,0.510980999999447,1
7470,123,Larynx,Left cTBS,Cons,Noise,139,4,1,0.6211383999907409,1
7471,123,Larynx,Left cTBS,Cons,Noise,140,3,1,0.64116179998382,1
7472,123,Larynx,Left cTBS,Cons,Noise,141,4,1,0.6483937999873891,1
7473,123,Larynx,Left cTBS,Cons,Noise,142,1,0,0.649470300006215,1
7474,123,Larynx,Left cTBS,Cons,Noise,143,5,1,0.602428699989105,1
7475,123,Larynx,Left cTBS,Cons,Noise,144,2,1,0.46702999999979494,1
7476,123,Larynx,Left cTBS,Cons,Noise,145,3,1,0.664977299980819,1
7477,123,Larynx,Left cTBS,Cons,Noise,146,4,1,0.708425699995132,1
7478,123,Larynx,Left cTBS,Cons,Noise,147,1,0,0.7739951999974441,1
7479,123,Larynx,Left cTBS,Cons,Noise,148,1,0,0.772221499995794,1
7480,123,Larynx,Left cTBS,Cons,Noise,149,2,1,0.47602019997429995,1
7481,123,Larynx,Left cTBS,Cons,Noise,150,5,1,0.36018150000018107,1
7482,123,Larynx,Left cTBS,Cons,Noise,151,5,1,0.344389899983071,1
7483,123,Larynx,Left cTBS,Cons,Noise,152,5,1,0.37900689998059495,1
7484,123,Larynx,Left cTBS,Cons,Noise,153,4,1,0.479984700010391,1
7485,123,Larynx,Left cTBS,Cons,Noise,154,3,1,0.494205800001509,1
7486,123,Larynx,Left cTBS,Cons,Noise,155,2,1,0.660916400025599,1
7487,123,Larynx,Left cTBS,Cons,Noise,156,4,1,0.687394499982474,1
9204,123,Larynx,Sham,Cons,Noise,1,3,0,0.5749145000008871,1
9205,123,Larynx,Sham,Cons,Noise,2,3,1,0.49060799996368604,1
9206,123,Larynx,Sham,Cons,Noise,3,5,1,0.40578799997456394,1
9207,123,Larynx,Sham,Cons,Noise,4,1,1,0.34813419997226397,1
9208,123,Larynx,Sham,Cons,Noise,5,2,0,0.601764099905267,1
9209,123,Larynx,Sham,Cons,Noise,6,3,1,0.418503599939868,1
9210,123,Larynx,Sham,Cons,Noise,7,2,1,0.4330277999397371,1
9211,123,Larynx,Sham,Cons,Noise,8,2,1,0.5405459000030529,1
9212,123,Larynx,Sham,Cons,Noise,9,5,1,0.407439499977045,1
9213,123,Larynx,Sham,Cons,Noise,10,4,1,0.37019479996524796,1
9214,123,Larynx,Sham,Cons,Noise,11,5,1,0.404152599978261,1
9215,123,Larynx,Sham,Cons,Noise,12,1,1,0.36043389991391495,1
9216,123,Larynx,Sham,Cons,Noise,13,1,0,0.667414100025781,1
9217,123,Larynx,Sham,Cons,Noise,14,4,1,0.619005399988964,1
9218,123,Larynx,Sham,Cons,Noise,15,5,1,0.420127099961974,1
9219,123,Larynx,Sham,Cons,Noise,16,2,1,0.370456299977377,1
9220,123,Larynx,Sham,Cons,Noise,17,4,1,0.535850599990226,1
9221,123,Larynx,Sham,Cons,Noise,18,4,1,0.454573300085031,1
9222,123,Larynx,Sham,Cons,Noise,19,3,1,0.403668099897914,1
9223,123,Larynx,Sham,Cons,Noise,20,3,1,0.41921209997963205,1
9224,123,Larynx,Sham,Cons,Noise,21,2,1,0.43193349998909997,1
9225,123,Larynx,Sham,Cons,Noise,22,1,1,0.596568400040269,1
9226,123,Larynx,Sham,Cons,Noise,23,4,1,0.6597997999051589,1
9227,123,Larynx,Sham,Cons,Noise,24,3,1,0.39706230000592796,1
9228,123,Larynx,Sham,Cons,Noise,25,3,1,0.44377820007503005,1
9229,123,Larynx,Sham,Cons,Noise,26,3,1,0.46475769998505706,1
9230,123,Larynx,Sham,Cons,Noise,27,1,1,0.537170900031924,1
9231,123,Larynx,Sham,Cons,Noise,28,5,1,0.758179800002836,1
9232,123,Larynx,Sham,Cons,Noise,29,2,1,0.916667100042105,1
9233,123,Larynx,Sham,Cons,Noise,30,4,1,0.45220599998719996,1
9234,123,Larynx,Sham,Cons,Noise,31,2,1,0.594741299981251,1
9235,123,Larynx,Sham,Cons,Noise,32,3,1,0.58275040006265,1
9236,123,Larynx,Sham,Cons,Noise,33,3,1,0.7752295000245791,1
9237,123,Larynx,Sham,Cons,Noise,34,2,1,0.8996630000183359,1
9238,123,Larynx,Sham,Cons,Noise,35,4,1,0.76977190002799,1
9239,123,Larynx,Sham,Cons,Noise,36,3,1,0.6667490999680009,1
9240,123,Larynx,Sham,Cons,Noise,37,5,1,0.692242500022985,1
9241,123,Larynx,Sham,Cons,Noise,38,1,0,0.5506134999450301,1
9242,123,Larynx,Sham,Cons,Noise,39,4,1,0.5951401999918741,1
9243,123,Larynx,Sham,Cons,Noise,40,5,1,0.49536900001112394,1
9244,123,Larynx,Sham,Cons,Noise,41,3,1,0.37453490006737394,1
9245,123,Larynx,Sham,Cons,Noise,42,3,1,0.366795699927025,1
9246,123,Larynx,Sham,Cons,Noise,43,4,1,0.407638200093061,1
9247,123,Larynx,Sham,Cons,Noise,44,3,1,0.617710399907082,1
9248,123,Larynx,Sham,Cons,Noise,45,4,1,0.48978259996511,1
9249,123,Larynx,Sham,Cons,Noise,46,1,0,0.5927206000778821,1
9250,123,Larynx,Sham,Cons,Noise,47,3,1,0.503121200017631,1
9251,123,Larynx,Sham,Cons,Noise,48,2,1,0.333237200044096,1
9252,123,Larynx,Sham,Cons,Noise,49,1,1,0.421525200014003,1
9253,123,Larynx,Sham,Cons,Noise,50,4,1,0.528901700046845,1
9254,123,Larynx,Sham,Cons,Noise,51,3,1,0.43242960004135994,1
9255,123,Larynx,Sham,Cons,Noise,52,3,1,0.506872299942188,1
9256,123,Larynx,Sham,Cons,Noise,53,1,1,0.5613494999706751,1
9257,123,Larynx,Sham,Cons,Noise,54,5,1,0.743958299979568,1
9258,123,Larynx,Sham,Cons,Noise,55,2,0,0.6965740000596271,1
9259,123,Larynx,Sham,Cons,Noise,56,1,1,0.42717259994242296,1
9260,123,Larynx,Sham,Cons,Noise,57,4,1,0.447671299916692,1
9261,123,Larynx,Sham,Cons,Noise,58,4,1,0.5665579999331379,1
9262,123,Larynx,Sham,Cons,Noise,59,2,1,0.65519730001688,1
9263,123,Larynx,Sham,Cons,Noise,60,2,0,0.6788152999943121,1
9264,123,Larynx,Sham,Cons,Noise,61,4,1,0.44010530004743503,1
9265,123,Larynx,Sham,Cons,Noise,62,3,1,0.3545453000115229,1
9266,123,Larynx,Sham,Cons,Noise,63,2,1,0.34657759999390697,1
9267,123,Larynx,Sham,Cons,Noise,64,3,1,0.602922599995509,1
9268,123,Larynx,Sham,Cons,Noise,65,3,1,0.705033999984153,1
9269,123,Larynx,Sham,Cons,Noise,66,5,1,1.16979100008029,1
9270,123,Larynx,Sham,Cons,Noise,67,2,0,0.745809500105679,1
9271,123,Larynx,Sham,Cons,Noise,68,2,1,0.5309423999860879,1
9272,123,Larynx,Sham,Cons,Noise,69,4,1,0.474007199984044,1
9273,123,Larynx,Sham,Cons,Noise,70,5,1,0.38277849997393804,1
9274,123,Larynx,Sham,Cons,Noise,71,1,1,0.4523830000543971,1
9275,123,Larynx,Sham,Cons,Noise,72,5,1,0.49115889996755896,1
9276,123,Larynx,Sham,Cons,Noise,73,1,0,0.859930200036615,1
9277,123,Larynx,Sham,Cons,Noise,74,4,1,0.436431699898094,1
9278,123,Larynx,Sham,Cons,Noise,75,3,1,0.40455670002847904,1
9279,123,Larynx,Sham,Cons,Noise,76,2,1,0.302622899995185,1
9280,123,Larynx,Sham,Cons,Noise,77,3,1,0.35417389997746795,1
9281,123,Larynx,Sham,Cons,Noise,78,5,1,0.325272400048561,1
9282,123,Larynx,Sham,Cons,Noise,79,4,1,0.3629865000257271,1
9283,123,Larynx,Sham,Cons,Noise,80,5,1,0.442367800045758,1
9284,123,Larynx,Sham,Cons,Noise,81,2,1,0.441872800001875,1
9285,123,Larynx,Sham,Cons,Noise,82,3,1,0.39453689998481395,1
9286,123,Larynx,Sham,Cons,Noise,83,4,1,0.505915399990045,1
9287,123,Larynx,Sham,Cons,Noise,84,4,1,0.48277600004803395,1
9288,123,Larynx,Sham,Cons,Noise,85,2,0,0.582257900037803,1
9289,123,Larynx,Sham,Cons,Noise,86,2,1,0.35027609998360304,1
9290,123,Larynx,Sham,Cons,Noise,87,3,1,0.60943060007412,1
9291,123,Larynx,Sham,Cons,Noise,88,5,1,0.60268570005428,1
9292,123,Larynx,Sham,Cons,Noise,89,1,0,0.6347506999736651,1
9293,123,Larynx,Sham,Cons,Noise,90,4,1,0.43190590001177004,1
9294,123,Larynx,Sham,Cons,Noise,91,3,1,0.414652499952354,1
9295,123,Larynx,Sham,Cons,Noise,92,1,1,0.602143600001,1
9296,123,Larynx,Sham,Cons,Noise,93,3,1,0.7869265000335871,1
9297,123,Larynx,Sham,Cons,Noise,94,3,1,0.845431299996562,1
9298,123,Larynx,Sham,Cons,Noise,95,1,0,0.743202099925838,1
9299,123,Larynx,Sham,Cons,Noise,96,2,1,0.531340999994427,1
9300,123,Larynx,Sham,Cons,Noise,97,5,1,0.48204110004007794,1
9301,123,Larynx,Sham,Cons,Noise,98,5,1,0.523449799977243,1
9302,123,Larynx,Sham,Cons,Noise,99,4,1,0.73110530001577,1
9303,123,Larynx,Sham,Cons,Noise,100,3,1,0.6646408999804411,1
9304,123,Larynx,Sham,Cons,Noise,101,3,1,0.7229957999661559,1
9305,123,Larynx,Sham,Cons,Noise,102,5,1,1.01946599991061,1
9306,123,Larynx,Sham,Cons,Noise,103,4,1,0.8576716999523342,1
9307,123,Larynx,Sham,Cons,Noise,104,3,1,0.7994716999819499,1
9308,123,Larynx,Sham,Cons,Noise,105,2,1,0.725248400005512,1
9309,123,Larynx,Sham,Cons,Noise,106,4,1,0.6734744999557729,1
9310,123,Larynx,Sham,Cons,Noise,107,1,0,0.662942499970086,1
9311,123,Larynx,Sham,Cons,Noise,108,1,0,0.754995199968107,1
9312,123,Larynx,Sham,Cons,Noise,109,3,1,0.42561040003784,1
9313,123,Larynx,Sham,Cons,Noise,110,2,1,0.9828794000204649,1
9314,123,Larynx,Sham,Cons,Noise,111,1,0,0.863552399910986,1
9315,123,Larynx,Sham,Cons,Noise,112,5,1,0.471702999901026,1
9316,123,Larynx,Sham,Cons,Noise,113,2,1,1.12964820000343,1
9317,123,Larynx,Sham,Cons,Noise,114,4,1,0.761612999951467,1
9318,123,Larynx,Sham,Cons,Noise,115,3,1,0.684766099904664,1
9319,123,Larynx,Sham,Cons,Noise,116,3,1,0.765870500006713,1
9320,123,Larynx,Sham,Cons,Noise,117,2,1,0.686005499912426,1
9321,123,Larynx,Sham,Cons,Noise,118,1,1,1.01722769998014,1
9322,123,Larynx,Sham,Cons,Noise,119,4,1,0.7502017000224441,1
9323,123,Larynx,Sham,Cons,Noise,120,4,1,0.738790499977767,1
9324,123,Larynx,Sham,Cons,Noise,121,2,0,0.633908199961297,1
9325,123,Larynx,Sham,Cons,Noise,122,1,0,0.8302498999983071,1
9326,123,Larynx,Sham,Cons,Noise,123,2,1,0.8122601000359281,1
9327,123,Larynx,Sham,Cons,Noise,124,5,1,0.613886300008744,1
9328,123,Larynx,Sham,Cons,Noise,125,4,1,0.710129700019024,1
9329,123,Larynx,Sham,Cons,Noise,126,2,1,0.738180299988016,1
9330,123,Larynx,Sham,Cons,Noise,127,3,1,0.9897296000272041,1
9331,123,Larynx,Sham,Cons,Noise,128,4,1,0.7469550999812778,1
9332,123,Larynx,Sham,Cons,Noise,129,3,1,0.8822946000145749,1
9333,123,Larynx,Sham,Cons,Noise,130,1,0,0.707439600024372,1
9334,123,Larynx,Sham,Cons,Noise,131,2,1,0.45382350008003397,1
9335,123,Larynx,Sham,Cons,Noise,132,1,1,0.542207199963741,1
9336,123,Larynx,Sham,Cons,Noise,133,3,1,0.5283772000111641,1
9337,123,Larynx,Sham,Cons,Noise,134,4,1,0.568700499949045,1
9338,123,Larynx,Sham,Cons,Noise,135,3,1,0.479161600000225,1
9339,123,Larynx,Sham,Cons,Noise,136,3,1,0.40305359999183604,1
9340,123,Larynx,Sham,Cons,Noise,137,5,1,0.444507699925452,1
9341,123,Larynx,Sham,Cons,Noise,138,2,1,0.430329800001346,1
9342,123,Larynx,Sham,Cons,Noise,139,3,1,0.431562299956568,1
9343,123,Larynx,Sham,Cons,Noise,140,2,1,0.843681700062007,1
9344,123,Larynx,Sham,Cons,Noise,141,5,1,0.604062300059013,1
9345,123,Larynx,Sham,Cons,Noise,142,3,1,0.533647200092673,1
9346,123,Larynx,Sham,Cons,Noise,143,5,1,0.5808708999538791,1
9347,123,Larynx,Sham,Cons,Noise,144,2,1,0.436040200060233,1
9348,123,Larynx,Sham,Cons,Noise,145,3,1,0.43194039992522404,1
9349,123,Larynx,Sham,Cons,Noise,146,1,0,0.630688500008546,1
9350,123,Larynx,Sham,Cons,Noise,147,3,1,0.442166600027122,1
9351,123,Larynx,Sham,Cons,Noise,148,4,1,0.33420449995901397,1
9352,123,Larynx,Sham,Cons,Noise,149,4,1,0.318872899981216,1
9353,123,Larynx,Sham,Cons,Noise,150,2,1,0.346221600077115,1
9354,123,Larynx,Sham,Cons,Noise,151,5,1,0.38558659993577704,1
9355,123,Larynx,Sham,Cons,Noise,152,3,1,0.399228999973275,1
9356,123,Larynx,Sham,Cons,Noise,153,3,1,0.523329699994065,1
9357,123,Larynx,Sham,Cons,Noise,154,5,1,0.6799737999681379,1
9358,123,Larynx,Sham,Cons,Noise,155,4,1,0.44460540008731203,1
9359,123,Larynx,Sham,Cons,Noise,156,1,1,0.45483300008345395,1
10452,139,Larynx,Left cTBS,Cons,Noise,1,4,0,1.0833668999839599,1
10453,139,Larynx,Left cTBS,Cons,Noise,2,4,0,1.0146454999921801,1
10454,139,Larynx,Left cTBS,Cons,Noise,3,2,1,0.912008000013884,1
10455,139,Larynx,Left cTBS,Cons,Noise,4,3,0,0.655735000036657,1
10456,139,Larynx,Left cTBS,Cons,Noise,5,3,1,1.1466270999517298,1
10457,139,Larynx,Left cTBS,Cons,Noise,6,3,0,0.706930299988016,1
10458,139,Larynx,Left cTBS,Cons,Noise,7,2,0,0.646402399986982,1
10459,139,Larynx,Left cTBS,Cons,Noise,8,3,1,0.655940499971621,1
10460,139,Larynx,Left cTBS,Cons,Noise,9,5,1,0.748737999994773,1
10461,139,Larynx,Left cTBS,Cons,Noise,10,3,0,0.5013659999822271,1
10462,139,Larynx,Left cTBS,Cons,Noise,11,2,0,0.49715120001928903,1
10463,139,Larynx,Left cTBS,Cons,Noise,12,2,1,0.43717759998980893,1
10464,139,Larynx,Left cTBS,Cons,Noise,13,5,1,0.7917104000225659,1
10465,139,Larynx,Left cTBS,Cons,Noise,14,4,0,0.643360399990343,1
10466,139,Larynx,Left cTBS,Cons,Noise,15,3,0,0.6335628000088039,1
10467,139,Larynx,Left cTBS,Cons,Noise,16,1,0,0.662596400012262,1
10468,139,Larynx,Left cTBS,Cons,Noise,17,5,1,0.633065399946645,1
10469,139,Larynx,Left cTBS,Cons,Noise,18,3,0,0.6979576000012461,1
10470,139,Larynx,Left cTBS,Cons,Noise,19,3,1,0.563158500008285,1
10471,139,Larynx,Left cTBS,Cons,Noise,20,1,1,1.07223799999338,1
10472,139,Larynx,Left cTBS,Cons,Noise,21,5,1,0.9311734000220891,1
10473,139,Larynx,Left cTBS,Cons,Noise,22,3,0,0.596987500030082,1
10474,139,Larynx,Left cTBS,Cons,Noise,23,2,0,0.570736600027885,1
10475,139,Larynx,Left cTBS,Cons,Noise,24,1,0,0.634282700018957,1
10476,139,Larynx,Left cTBS,Cons,Noise,25,2,0,0.684325899987016,1
10477,139,Larynx,Left cTBS,Cons,Noise,26,2,1,0.662406799965538,1
10478,139,Larynx,Left cTBS,Cons,Noise,27,4,1,0.921576900000218,1
10479,139,Larynx,Left cTBS,Cons,Noise,28,1,0,0.751272499968763,1
10480,139,Larynx,Left cTBS,Cons,Noise,29,1,0,0.6434340000269,1
10481,139,Larynx,Left cTBS,Cons,Noise,30,3,1,0.6729311000090091,1
10482,139,Larynx,Left cTBS,Cons,Noise,31,4,1,0.627509200014174,1
10483,139,Larynx,Left cTBS,Cons,Noise,32,5,0,0.981494200008456,1
10484,139,Larynx,Left cTBS,Cons,Noise,33,4,1,0.8660756000317629,1
10485,139,Larynx,Left cTBS,Cons,Noise,34,4,1,0.9663918999722231,1
10486,139,Larynx,Left cTBS,Cons,Noise,35,3,1,0.7561973999836479,1
10487,139,Larynx,Left cTBS,Cons,Noise,36,2,1,0.893566200044006,1
10488,139,Larynx,Left cTBS,Cons,Noise,37,1,0,0.5963843000354251,1
10489,139,Larynx,Left cTBS,Cons,Noise,38,5,1,1.0284872000338499,1
10490,139,Larynx,Left cTBS,Cons,Noise,39,4,1,0.7971004000282851,1
10491,139,Larynx,Left cTBS,Cons,Noise,40,3,0,0.9709293999476359,1
10492,139,Larynx,Left cTBS,Cons,Noise,41,4,1,0.7071826999890619,1
10493,139,Larynx,Left cTBS,Cons,Noise,42,3,1,0.6884071999811571,1
10494,139,Larynx,Left cTBS,Cons,Noise,43,1,0,0.5848105000331999,1
10495,139,Larynx,Left cTBS,Cons,Noise,44,2,1,0.8127241000183859,1
10496,139,Larynx,Left cTBS,Cons,Noise,45,3,1,0.8011241999920459,1
10497,139,Larynx,Left cTBS,Cons,Noise,46,3,0,0.561175699986052,1
10498,139,Larynx,Left cTBS,Cons,Noise,47,1,0,0.6929272999987011,1
10499,139,Larynx,Left cTBS,Cons,Noise,48,1,0,0.7632643000106328,1
10500,139,Larynx,Left cTBS,Cons,Noise,49,4,0,0.705104599997867,1
10501,139,Larynx,Left cTBS,Cons,Noise,50,4,1,0.720152799971402,1
10502,139,Larynx,Left cTBS,Cons,Noise,51,3,0,0.815111999982037,1
10503,139,Larynx,Left cTBS,Cons,Noise,52,2,0,0.683113100007176,1
10504,139,Larynx,Left cTBS,Cons,Noise,53,5,1,0.545136700035073,1
10505,139,Larynx,Left cTBS,Cons,Noise,54,2,1,0.7094476000056601,1
10506,139,Larynx,Left cTBS,Cons,Noise,55,2,0,0.64014600001974,1
10507,139,Larynx,Left cTBS,Cons,Noise,56,5,1,0.631776099966373,1
10508,139,Larynx,Left cTBS,Cons,Noise,57,1,0,0.8064259000238959,1
10509,139,Larynx,Left cTBS,Cons,Noise,58,4,1,0.64646509999875,1
10510,139,Larynx,Left cTBS,Cons,Noise,59,4,0,0.684132900030818,1
10511,139,Larynx,Left cTBS,Cons,Noise,60,3,0,1.04834979999578,1
10512,139,Larynx,Left cTBS,Cons,Noise,61,5,1,0.5017626999760979,1
10513,139,Larynx,Left cTBS,Cons,Noise,62,3,1,1.02081550000003,1
10514,139,Larynx,Left cTBS,Cons,Noise,63,4,0,0.5072342999628751,1
10515,139,Larynx,Left cTBS,Cons,Noise,64,3,1,0.753238899982534,1
10516,139,Larynx,Left cTBS,Cons,Noise,65,2,0,0.5324228999670589,1
10517,139,Larynx,Left cTBS,Cons,Noise,66,1,1,0.531051400001161,1
10518,139,Larynx,Left cTBS,Cons,Noise,67,3,1,1.00672849995317,1
10519,139,Larynx,Left cTBS,Cons,Noise,68,4,1,0.777182199992239,1
10520,139,Larynx,Left cTBS,Cons,Noise,69,5,0,0.481674399983604,1
10521,139,Larynx,Left cTBS,Cons,Noise,70,2,0,0.746796199993696,1
10522,139,Larynx,Left cTBS,Cons,Noise,71,5,1,0.6651409000041889,1
10523,139,Larynx,Left cTBS,Cons,Noise,72,5,1,0.549026299966499,1
10524,139,Larynx,Left cTBS,Cons,Noise,73,4,1,0.7952058999799191,1
10525,139,Larynx,Left cTBS,Cons,Noise,74,1,1,0.8374198999954391,1
10526,139,Larynx,Left cTBS,Cons,Noise,75,3,0,0.676885600027163,1
10527,139,Larynx,Left cTBS,Cons,Noise,76,2,0,0.5434668000089,1
10528,139,Larynx,Left cTBS,Cons,Noise,77,2,1,0.733578199986368,1
10529,139,Larynx,Left cTBS,Cons,Noise,78,3,1,0.6187015000032261,1
10530,139,Larynx,Left cTBS,Cons,Noise,79,5,1,0.747071199992206,1
10531,139,Larynx,Left cTBS,Cons,Noise,80,3,0,0.9683322000200859,1
10532,139,Larynx,Left cTBS,Cons,Noise,81,3,0,0.6816297999466769,1
10533,139,Larynx,Left cTBS,Cons,Noise,82,1,1,0.8938119999947959,1
10534,139,Larynx,Left cTBS,Cons,Noise,83,1,0,0.661901700019371,1
10535,139,Larynx,Left cTBS,Cons,Noise,84,4,1,0.857846800005063,1
10536,139,Larynx,Left cTBS,Cons,Noise,85,3,1,0.794452100002673,1
10537,139,Larynx,Left cTBS,Cons,Noise,86,3,1,0.699556300009135,1
10538,139,Larynx,Left cTBS,Cons,Noise,87,2,0,0.5619136000168511,1
10539,139,Larynx,Left cTBS,Cons,Noise,88,3,1,0.96368430001894,1
10540,139,Larynx,Left cTBS,Cons,Noise,89,5,1,0.757617199968081,1
10541,139,Larynx,Left cTBS,Cons,Noise,90,5,1,0.7231918000034058,1
10542,139,Larynx,Left cTBS,Cons,Noise,91,1,0,0.643747599970084,1
10543,139,Larynx,Left cTBS,Cons,Noise,92,5,0,0.5284726999816479,1
10544,139,Larynx,Left cTBS,Cons,Noise,93,2,1,0.7313320999965071,1
10545,139,Larynx,Left cTBS,Cons,Noise,94,3,0,0.6734614999731999,1
10546,139,Larynx,Left cTBS,Cons,Noise,95,2,1,0.7842664999770931,1
10547,139,Larynx,Left cTBS,Cons,Noise,96,4,1,0.6839696000097321,1
10548,139,Larynx,Left cTBS,Cons,Noise,97,4,1,0.8094842999707909,1
10549,139,Larynx,Left cTBS,Cons,Noise,98,5,1,0.855314699991141,1
10550,139,Larynx,Left cTBS,Cons,Noise,99,2,1,0.6932740000193011,1
10551,139,Larynx,Left cTBS,Cons,Noise,100,1,0,0.557969199959189,1
10552,139,Larynx,Left cTBS,Cons,Noise,101,4,1,0.7467857000301591,1
10553,139,Larynx,Left cTBS,Cons,Noise,102,2,0,0.899559299985413,1
10554,139,Larynx,Left cTBS,Cons,Noise,103,4,1,0.5891913999803361,1
10555,139,Larynx,Left cTBS,Cons,Noise,104,1,1,0.6570292999967929,1
10556,139,Larynx,Left cTBS,Cons,Noise,105,2,0,0.566158799978439,1
10557,139,Larynx,Left cTBS,Cons,Noise,106,4,1,0.659078800003044,1
10558,139,Larynx,Left cTBS,Cons,Noise,107,2,0,0.7208319999626841,1
10559,139,Larynx,Left cTBS,Cons,Noise,108,3,1,0.7308475000318141,1
10560,139,Larynx,Left cTBS,Cons,Noise,109,3,1,0.684149499982595,1
10561,139,Larynx,Left cTBS,Cons,Noise,110,1,0,0.570276700018439,1
10562,139,Larynx,Left cTBS,Cons,Noise,111,4,1,0.6771272999467329,1
10563,139,Larynx,Left cTBS,Cons,Noise,112,3,1,0.7334165999782271,1
10564,139,Larynx,Left cTBS,Cons,Noise,113,2,0,0.605180700018536,1
10565,139,Larynx,Left cTBS,Cons,Noise,114,3,1,0.6778676999965679,1
10566,139,Larynx,Left cTBS,Cons,Noise,115,4,1,0.616719600046054,1
10567,139,Larynx,Left cTBS,Cons,Noise,116,3,1,0.7452266999753191,1
10568,139,Larynx,Left cTBS,Cons,Noise,117,5,1,0.7438918999978341,1
10569,139,Larynx,Left cTBS,Cons,Noise,118,2,0,0.832699999969918,1
10570,139,Larynx,Left cTBS,Cons,Noise,119,3,1,0.637656600039918,1
10571,139,Larynx,Left cTBS,Cons,Noise,120,4,1,0.590248799999245,1
10572,139,Larynx,Left cTBS,Cons,Noise,121,3,1,0.6990384999662641,1
10573,139,Larynx,Left cTBS,Cons,Noise,122,3,1,0.9782113999826829,1
10574,139,Larynx,Left cTBS,Cons,Noise,123,4,0,0.7776033999980431,1
10575,139,Larynx,Left cTBS,Cons,Noise,124,2,0,0.806325500016101,1
10576,139,Larynx,Left cTBS,Cons,Noise,125,5,1,0.750805300020147,1
10577,139,Larynx,Left cTBS,Cons,Noise,126,1,0,1.15326790005201,1
10578,139,Larynx,Left cTBS,Cons,Noise,127,5,1,0.804143100045621,1
10579,139,Larynx,Left cTBS,Cons,Noise,128,1,0,0.556489900045563,1
10580,139,Larynx,Left cTBS,Cons,Noise,129,2,0,0.574694000009913,1
10581,139,Larynx,Left cTBS,Cons,Noise,130,1,1,0.775378999998793,1
10582,139,Larynx,Left cTBS,Cons,Noise,131,2,1,0.674118700029794,1
10583,139,Larynx,Left cTBS,Cons,Noise,132,1,0,0.559628800023347,1
10584,139,Larynx,Left cTBS,Cons,Noise,133,3,0,1.292676400044,1
10585,139,Larynx,Left cTBS,Cons,Noise,134,3,1,0.6576864999951789,1
10586,139,Larynx,Left cTBS,Cons,Noise,135,3,1,0.861150000011548,1
10587,139,Larynx,Left cTBS,Cons,Noise,136,5,1,1.05728079995606,1
10588,139,Larynx,Left cTBS,Cons,Noise,137,4,0,0.603592700033914,1
10589,139,Larynx,Left cTBS,Cons,Noise,138,4,0,0.658973700017668,1
10590,139,Larynx,Left cTBS,Cons,Noise,139,4,0,0.839874700002838,1
10591,139,Larynx,Left cTBS,Cons,Noise,140,3,1,0.6708630999783051,1
10592,139,Larynx,Left cTBS,Cons,Noise,141,3,0,0.7948034000000921,1
10593,139,Larynx,Left cTBS,Cons,Noise,142,2,1,1.5580047999974298,1
10594,139,Larynx,Left cTBS,Cons,Noise,143,4,0,0.46647879999363795,1
10595,139,Larynx,Left cTBS,Cons,Noise,144,5,1,0.843667199951597,1
10596,139,Larynx,Left cTBS,Cons,Noise,145,1,0,0.5915962000144649,1
10597,139,Larynx,Left cTBS,Cons,Noise,146,2,0,1.08387659996515,1
10598,139,Larynx,Left cTBS,Cons,Noise,147,3,1,0.6748449000297111,1
10599,139,Larynx,Left cTBS,Cons,Noise,148,3,0,1.1236139000393501,1
10600,139,Larynx,Left cTBS,Cons,Noise,149,3,1,0.851514100038912,1
10601,139,Larynx,Left cTBS,Cons,Noise,150,2,0,0.5870869000209499,1
10602,139,Larynx,Left cTBS,Cons,Noise,151,4,1,0.9245861999806949,1
10603,139,Larynx,Left cTBS,Cons,Noise,152,5,1,0.7852337000076659,1
10604,139,Larynx,Left cTBS,Cons,Noise,153,5,0,0.7425509000313469,1
10605,139,Larynx,Left cTBS,Cons,Noise,154,4,1,0.735281399975065,1
10606,139,Larynx,Left cTBS,Cons,Noise,155,2,1,0.723358399991412,1
10607,139,Larynx,Left cTBS,Cons,Noise,156,1,0,0.586342299997341,1
12324,139,Larynx,Sham,Cons,Noise,1,3,0,0.9110518000015869,1
12325,139,Larynx,Sham,Cons,Noise,2,3,0,1.04257049999433,1
12326,139,Larynx,Sham,Cons,Noise,3,5,1,0.779261099996802,1
12327,139,Larynx,Sham,Cons,Noise,4,1,0,0.6092513000039621,1
12328,139,Larynx,Sham,Cons,Noise,5,2,0,0.855757600002107,1
12329,139,Larynx,Sham,Cons,Noise,6,3,1,0.6486449000003629,1
12330,139,Larynx,Sham,Cons,Noise,7,2,0,0.659676700001,1
12331,139,Larynx,Sham,Cons,Noise,8,2,0,0.5399001999976459,1
12332,139,Larynx,Sham,Cons,Noise,9,5,0,0.7532875000033531,1
12333,139,Larynx,Sham,Cons,Noise,10,4,1,0.626859800002421,1
12334,139,Larynx,Sham,Cons,Noise,11,5,0,0.675837199996749,1
12335,139,Larynx,Sham,Cons,Noise,12,1,0,0.6801493000020861,1
12336,139,Larynx,Sham,Cons,Noise,13,1,0,0.8345283000016929,1
12337,139,Larynx,Sham,Cons,Noise,14,4,1,0.5742343000019899,1
12338,139,Larynx,Sham,Cons,Noise,15,5,1,1.02788769999461,1
12339,139,Larynx,Sham,Cons,Noise,16,2,0,0.578668499998457,1
12340,139,Larynx,Sham,Cons,Noise,17,4,0,0.527675100005581,1
12341,139,Larynx,Sham,Cons,Noise,18,4,0,0.908719300001394,1
12342,139,Larynx,Sham,Cons,Noise,19,3,1,0.7304697999934431,1
12343,139,Larynx,Sham,Cons,Noise,20,3,1,0.6828562000009699,1
12344,139,Larynx,Sham,Cons,Noise,21,2,0,0.573678699998709,1
12345,139,Larynx,Sham,Cons,Noise,22,1,0,0.44668130000354705,1
12346,139,Larynx,Sham,Cons,Noise,23,4,0,0.8882991999998922,1
12347,139,Larynx,Sham,Cons,Noise,24,3,0,0.730717899998126,1
12348,139,Larynx,Sham,Cons,Noise,25,3,1,0.585226799994416,1
12349,139,Larynx,Sham,Cons,Noise,26,3,1,1.45940210000117,1
12350,139,Larynx,Sham,Cons,Noise,27,1,0,0.497756200005824,1
12351,139,Larynx,Sham,Cons,Noise,28,5,0,0.7697221999987959,1
12352,139,Larynx,Sham,Cons,Noise,29,2,0,0.90937169999961,1
12353,139,Larynx,Sham,Cons,Noise,30,4,1,0.632348399994953,1
12354,139,Larynx,Sham,Cons,Noise,31,2,1,0.47187200000189505,1
12355,139,Larynx,Sham,Cons,Noise,32,3,1,0.891036500004702,1
12356,139,Larynx,Sham,Cons,Noise,33,3,1,1.0831365999984,1
12357,139,Larynx,Sham,Cons,Noise,34,2,0,0.588364100003673,1
12358,139,Larynx,Sham,Cons,Noise,35,4,0,0.654328899996472,1
12359,139,Larynx,Sham,Cons,Noise,36,3,1,0.7239996999996949,1
12360,139,Larynx,Sham,Cons,Noise,37,5,1,0.6555121000055811,1
12361,139,Larynx,Sham,Cons,Noise,38,1,0,0.675410299998475,1
12362,139,Larynx,Sham,Cons,Noise,39,4,1,0.870407200003683,1
12363,139,Larynx,Sham,Cons,Noise,40,5,1,0.8179533000002271,1
12364,139,Larynx,Sham,Cons,Noise,41,3,0,0.655102400000033,1
12365,139,Larynx,Sham,Cons,Noise,42,3,0,0.8080043000009031,1
12366,139,Larynx,Sham,Cons,Noise,43,4,1,0.5772940999959251,1
12367,139,Larynx,Sham,Cons,Noise,44,3,1,0.599535800000012,1
12368,139,Larynx,Sham,Cons,Noise,45,4,1,0.7542733000009321,1
12369,139,Larynx,Sham,Cons,Noise,46,1,0,0.630612900000415,1
12370,139,Larynx,Sham,Cons,Noise,47,3,0,0.7135674000019209,1
12371,139,Larynx,Sham,Cons,Noise,48,2,1,0.743721399994683,1
12372,139,Larynx,Sham,Cons,Noise,49,1,1,0.7021495000008139,1
12373,139,Larynx,Sham,Cons,Noise,50,4,0,0.765455900000234,1
12374,139,Larynx,Sham,Cons,Noise,51,3,1,1.2260877000007901,1
12375,139,Larynx,Sham,Cons,Noise,52,3,1,0.7053495999934971,1
12376,139,Larynx,Sham,Cons,Noise,53,1,0,0.641648199998599,1
12377,139,Larynx,Sham,Cons,Noise,54,5,0,0.5672265999965022,1
12378,139,Larynx,Sham,Cons,Noise,55,2,0,0.9343277000007221,1
12379,139,Larynx,Sham,Cons,Noise,56,1,1,0.6241588000048071,1
12380,139,Larynx,Sham,Cons,Noise,57,4,1,0.7011325999992549,1
12381,139,Larynx,Sham,Cons,Noise,58,4,1,1.29811930000142,1
12382,139,Larynx,Sham,Cons,Noise,59,2,0,0.568011899995327,1
12383,139,Larynx,Sham,Cons,Noise,60,2,1,0.811904999995022,1
12384,139,Larynx,Sham,Cons,Noise,61,4,1,0.7153619000018809,1
12385,139,Larynx,Sham,Cons,Noise,62,3,0,0.509508300005109,1
12386,139,Larynx,Sham,Cons,Noise,63,2,0,0.6045429000005239,1
12387,139,Larynx,Sham,Cons,Noise,64,3,1,0.8372987000038851,1
12388,139,Larynx,Sham,Cons,Noise,65,3,0,0.8875336999990401,1
12389,139,Larynx,Sham,Cons,Noise,66,5,0,0.7510036999956361,1
12390,139,Larynx,Sham,Cons,Noise,67,2,1,0.6332299999994581,1
12391,139,Larynx,Sham,Cons,Noise,68,2,1,1.03559530000348,1
12392,139,Larynx,Sham,Cons,Noise,69,4,1,0.802570799998648,1
12393,139,Larynx,Sham,Cons,Noise,70,5,1,0.76727050000045,1
12394,139,Larynx,Sham,Cons,Noise,71,1,0,0.648172400004114,1
12395,139,Larynx,Sham,Cons,Noise,72,5,0,1.26096499999403,1
12396,139,Larynx,Sham,Cons,Noise,73,1,0,0.800400599997374,1
12397,139,Larynx,Sham,Cons,Noise,74,4,1,0.7542238000023641,1
12398,139,Larynx,Sham,Cons,Noise,75,3,1,0.820479400004842,1
12399,139,Larynx,Sham,Cons,Noise,76,2,0,0.9393037000045301,1
12400,139,Larynx,Sham,Cons,Noise,77,3,1,0.906164699998044,1
12401,139,Larynx,Sham,Cons,Noise,78,5,1,0.8011071000000809,1
12402,139,Larynx,Sham,Cons,Noise,79,4,1,0.752925900000264,1
12403,139,Larynx,Sham,Cons,Noise,80,5,1,0.7635160999998329,1
12404,139,Larynx,Sham,Cons,Noise,81,2,0,0.7194633000035541,1
12405,139,Larynx,Sham,Cons,Noise,82,3,0,0.9147148000047309,1
12406,139,Larynx,Sham,Cons,Noise,83,4,1,0.648968100002094,1
12407,139,Larynx,Sham,Cons,Noise,84,4,1,0.635691200004658,1
12408,139,Larynx,Sham,Cons,Noise,85,2,0,1.0461502000034701,1
12409,139,Larynx,Sham,Cons,Noise,86,2,1,1.01382579999336,1
12410,139,Larynx,Sham,Cons,Noise,87,3,1,0.8546698999998629,1
12411,139,Larynx,Sham,Cons,Noise,88,5,0,0.706338100004359,1
12412,139,Larynx,Sham,Cons,Noise,89,1,0,0.8299078999989431,1
12413,139,Larynx,Sham,Cons,Noise,90,4,0,1.014783300001,1
12414,139,Larynx,Sham,Cons,Noise,91,3,1,0.737499700000626,1
12415,139,Larynx,Sham,Cons,Noise,92,1,1,0.6257874000002629,1
12416,139,Larynx,Sham,Cons,Noise,93,3,1,0.849614100006875,1
12417,139,Larynx,Sham,Cons,Noise,94,3,0,0.723958000002312,1
12418,139,Larynx,Sham,Cons,Noise,95,1,0,0.616128500005289,1
12419,139,Larynx,Sham,Cons,Noise,96,2,1,0.69486259999394,1
12420,139,Larynx,Sham,Cons,Noise,97,5,1,0.9596935999943531,1
12421,139,Larynx,Sham,Cons,Noise,98,5,1,0.672813099998166,1
12422,139,Larynx,Sham,Cons,Noise,99,4,1,1.04374420000386,1
12423,139,Larynx,Sham,Cons,Noise,100,3,1,0.8338328000027099,1
12424,139,Larynx,Sham,Cons,Noise,101,3,1,0.769350599999598,1
12425,139,Larynx,Sham,Cons,Noise,102,5,1,1.0002827999997,1
12426,139,Larynx,Sham,Cons,Noise,103,4,1,0.8449968999993871,1
12427,139,Larynx,Sham,Cons,Noise,104,3,0,0.641594699998677,1
12428,139,Larynx,Sham,Cons,Noise,105,2,0,0.660962599999039,1
12429,139,Larynx,Sham,Cons,Noise,106,4,1,0.734343399999489,1
12430,139,Larynx,Sham,Cons,Noise,107,1,0,0.727097199996933,1
12431,139,Larynx,Sham,Cons,Noise,108,1,0,0.978320800000802,1
12432,139,Larynx,Sham,Cons,Noise,109,3,1,0.7162565000035099,1
12433,139,Larynx,Sham,Cons,Noise,110,2,1,0.666358900001796,1
12434,139,Larynx,Sham,Cons,Noise,111,1,0,0.847150599998713,1
12435,139,Larynx,Sham,Cons,Noise,112,5,1,0.802483699997538,1
12436,139,Larynx,Sham,Cons,Noise,113,2,1,0.707642599998508,1
12437,139,Larynx,Sham,Cons,Noise,114,4,1,0.9263742999974058,1
12438,139,Larynx,Sham,Cons,Noise,115,3,0,0.8901707000040909,1
12439,139,Larynx,Sham,Cons,Noise,116,3,1,0.9212662999998431,1
12440,139,Larynx,Sham,Cons,Noise,117,2,1,0.725737000000663,1
12441,139,Larynx,Sham,Cons,Noise,118,1,1,0.6436586999989229,1
12442,139,Larynx,Sham,Cons,Noise,119,4,1,0.733762699994259,1
12443,139,Larynx,Sham,Cons,Noise,120,4,0,0.7141984999980201,1
12444,139,Larynx,Sham,Cons,Noise,121,2,1,0.630473299999721,1
12445,139,Larynx,Sham,Cons,Noise,122,1,0,0.692942399997264,1
12446,139,Larynx,Sham,Cons,Noise,123,2,0,0.579567900000256,1
12447,139,Larynx,Sham,Cons,Noise,124,5,1,0.5058897000053549,1
12448,139,Larynx,Sham,Cons,Noise,125,4,1,0.500767399993492,1
12449,139,Larynx,Sham,Cons,Noise,126,2,0,0.544521399999212,1
12450,139,Larynx,Sham,Cons,Noise,127,3,0,0.523943599997438,1
12451,139,Larynx,Sham,Cons,Noise,128,4,1,0.444942499998433,1
12452,139,Larynx,Sham,Cons,Noise,129,3,1,0.7312855999989549,1
12453,139,Larynx,Sham,Cons,Noise,130,1,0,0.7040913000018921,1
12454,139,Larynx,Sham,Cons,Noise,131,2,0,0.567244400001073,1
12455,139,Larynx,Sham,Cons,Noise,132,1,1,0.822846399998525,1
12456,139,Larynx,Sham,Cons,Noise,133,3,1,1.05786030000309,1
12457,139,Larynx,Sham,Cons,Noise,134,4,0,0.559263900002406,1
12458,139,Larynx,Sham,Cons,Noise,135,3,1,0.904535599998781,1
12459,139,Larynx,Sham,Cons,Noise,136,3,0,0.765864699998929,1
12460,139,Larynx,Sham,Cons,Noise,137,5,0,0.6970887999996189,1
12461,139,Larynx,Sham,Cons,Noise,138,2,1,0.6784105999977329,1
12462,139,Larynx,Sham,Cons,Noise,139,3,0,0.769005199996172,1
12463,139,Larynx,Sham,Cons,Noise,140,2,1,0.846131300000707,1
12464,139,Larynx,Sham,Cons,Noise,141,5,0,0.558219600003213,1
12465,139,Larynx,Sham,Cons,Noise,142,3,1,0.547192700003507,1
12466,139,Larynx,Sham,Cons,Noise,143,5,1,0.811133700000937,1
12467,139,Larynx,Sham,Cons,Noise,144,2,0,0.529191699999501,1
12468,139,Larynx,Sham,Cons,Noise,145,3,1,0.7933334999979709,1
12469,139,Larynx,Sham,Cons,Noise,146,1,0,0.6581952000051391,1
12470,139,Larynx,Sham,Cons,Noise,147,3,1,0.694754500000272,1
12471,139,Larynx,Sham,Cons,Noise,148,4,1,0.86367899999459,1
12472,139,Larynx,Sham,Cons,Noise,149,4,1,0.9666818999976391,1
12473,139,Larynx,Sham,Cons,Noise,150,2,1,0.8184639000028259,1
12474,139,Larynx,Sham,Cons,Noise,151,5,1,0.963317899993854,1
12475,139,Larynx,Sham,Cons,Noise,152,3,1,0.75918929999898,1
12476,139,Larynx,Sham,Cons,Noise,153,3,1,0.7464274999947521,1
12477,139,Larynx,Sham,Cons,Noise,154,5,0,0.563970700000937,1
12478,139,Larynx,Sham,Cons,Noise,155,4,1,0.8971190000011121,1
12479,139,Larynx,Sham,Cons,Noise,156,1,0,0.79276309999841,1
13572,142,Larynx,Left cTBS,Cons,Noise,1,1,0,0.6925781000172719,1
13573,142,Larynx,Left cTBS,Cons,Noise,2,4,1,0.684199000010267,1
13574,142,Larynx,Left cTBS,Cons,Noise,3,4,1,0.6089945998974139,1
13575,142,Larynx,Left cTBS,Cons,Noise,4,2,0,0.7122299000620841,1
13576,142,Larynx,Left cTBS,Cons,Noise,5,1,0,0.7096637999638921,1
13577,142,Larynx,Left cTBS,Cons,Noise,6,2,1,0.7134345999220391,1
13578,142,Larynx,Left cTBS,Cons,Noise,7,5,1,0.8247790999012071,1
13579,142,Larynx,Left cTBS,Cons,Noise,8,4,1,0.664766700007021,1
13580,142,Larynx,Left cTBS,Cons,Noise,9,2,0,0.643779600039124,1
13581,142,Larynx,Left cTBS,Cons,Noise,10,3,1,0.555354799958877,1
13582,142,Larynx,Left cTBS,Cons,Noise,11,4,1,0.7038499999325719,1
13583,142,Larynx,Left cTBS,Cons,Noise,12,3,1,0.616765099926852,1
13584,142,Larynx,Left cTBS,Cons,Noise,13,1,0,0.434234200045466,1
13585,142,Larynx,Left cTBS,Cons,Noise,14,2,1,0.7600424000993371,1
13586,142,Larynx,Left cTBS,Cons,Noise,15,1,0,0.469717200030573,1
13587,142,Larynx,Left cTBS,Cons,Noise,16,3,0,0.6418371000327171,1
13588,142,Larynx,Left cTBS,Cons,Noise,17,4,1,0.7336668000789359,1
13589,142,Larynx,Left cTBS,Cons,Noise,18,3,1,0.584071399993263,1
13590,142,Larynx,Left cTBS,Cons,Noise,19,3,1,0.842294400092214,1
13591,142,Larynx,Left cTBS,Cons,Noise,20,5,1,0.707266699988395,1
13592,142,Larynx,Left cTBS,Cons,Noise,21,2,1,0.6627212999155739,1
13593,142,Larynx,Left cTBS,Cons,Noise,22,3,1,0.6187257000710821,1
13594,142,Larynx,Left cTBS,Cons,Noise,23,2,0,0.9050071000820029,1
13595,142,Larynx,Left cTBS,Cons,Noise,24,5,1,0.6340048999991271,1
13596,142,Larynx,Left cTBS,Cons,Noise,25,3,0,0.542042099987157,1
13597,142,Larynx,Left cTBS,Cons,Noise,26,5,0,0.542572699952871,1
13598,142,Larynx,Left cTBS,Cons,Noise,27,2,1,0.6079869000241159,1
13599,142,Larynx,Left cTBS,Cons,Noise,28,3,1,0.594385400065221,1
13600,142,Larynx,Left cTBS,Cons,Noise,29,1,0,0.673181299935095,1
13601,142,Larynx,Left cTBS,Cons,Noise,30,3,1,0.6992710999911651,1
13602,142,Larynx,Left cTBS,Cons,Noise,31,4,1,0.585362100042403,1
13603,142,Larynx,Left cTBS,Cons,Noise,32,4,1,0.7783530000597242,1
13604,142,Larynx,Left cTBS,Cons,Noise,33,2,0,0.6937685000011701,1
13605,142,Larynx,Left cTBS,Cons,Noise,34,5,1,0.663042900036089,1
13606,142,Larynx,Left cTBS,Cons,Noise,35,3,1,0.673367099952884,1
13607,142,Larynx,Left cTBS,Cons,Noise,36,3,1,0.5422065999591721,1
13608,142,Larynx,Left cTBS,Cons,Noise,37,5,1,0.608907399931923,1
13609,142,Larynx,Left cTBS,Cons,Noise,38,4,1,0.613731699995697,1
13610,142,Larynx,Left cTBS,Cons,Noise,39,1,0,0.7161736000562091,1
13611,142,Larynx,Left cTBS,Cons,Noise,40,3,0,0.754774200031534,1
13612,142,Larynx,Left cTBS,Cons,Noise,41,4,1,0.5893204000312839,1
13613,142,Larynx,Left cTBS,Cons,Noise,42,5,1,0.6280945000471551,1
13614,142,Larynx,Left cTBS,Cons,Noise,43,4,1,0.9471409000689159,1
13615,142,Larynx,Left cTBS,Cons,Noise,44,4,1,0.555025600013323,1
13616,142,Larynx,Left cTBS,Cons,Noise,45,5,1,0.627106499974616,1
13617,142,Larynx,Left cTBS,Cons,Noise,46,3,0,0.800021799979731,1
13618,142,Larynx,Left cTBS,Cons,Noise,47,1,1,0.566348799970001,1
13619,142,Larynx,Left cTBS,Cons,Noise,48,2,1,0.595206800033338,1
13620,142,Larynx,Left cTBS,Cons,Noise,49,3,1,0.618961600004695,1
13621,142,Larynx,Left cTBS,Cons,Noise,50,2,0,0.934836499975063,1
13622,142,Larynx,Left cTBS,Cons,Noise,51,3,1,0.554806799977086,1
13623,142,Larynx,Left cTBS,Cons,Noise,52,2,1,0.701064600027166,1
13624,142,Larynx,Left cTBS,Cons,Noise,53,3,1,0.8253422999987379,1
13625,142,Larynx,Left cTBS,Cons,Noise,54,2,0,0.8289629000937571,1
13626,142,Larynx,Left cTBS,Cons,Noise,55,4,1,0.5878497000085191,1
13627,142,Larynx,Left cTBS,Cons,Noise,56,2,0,0.8194007999263699,1
13628,142,Larynx,Left cTBS,Cons,Noise,57,1,0,0.606437299982645,1
13629,142,Larynx,Left cTBS,Cons,Noise,58,5,1,0.580239700037055,1
13630,142,Larynx,Left cTBS,Cons,Noise,59,5,1,0.655789399985224,1
13631,142,Larynx,Left cTBS,Cons,Noise,60,3,0,0.633929900010116,1
13632,142,Larynx,Left cTBS,Cons,Noise,61,4,1,0.632635399932042,1
13633,142,Larynx,Left cTBS,Cons,Noise,62,4,1,0.9706488999072459,1
13634,142,Larynx,Left cTBS,Cons,Noise,63,3,1,0.599918599938974,1
13635,142,Larynx,Left cTBS,Cons,Noise,64,5,1,0.713585000019521,1
13636,142,Larynx,Left cTBS,Cons,Noise,65,2,0,0.931770400027744,1
13637,142,Larynx,Left cTBS,Cons,Noise,66,2,0,0.874684399925172,1
13638,142,Larynx,Left cTBS,Cons,Noise,67,3,1,0.519474699976854,1
13639,142,Larynx,Left cTBS,Cons,Noise,68,4,1,0.6660774999763821,1
13640,142,Larynx,Left cTBS,Cons,Noise,69,4,1,0.7250104999402541,1
13641,142,Larynx,Left cTBS,Cons,Noise,70,3,1,0.7145731000928209,1
13642,142,Larynx,Left cTBS,Cons,Noise,71,3,0,0.5134210999822241,1
13643,142,Larynx,Left cTBS,Cons,Noise,72,5,1,0.5572227000957349,1
13644,142,Larynx,Left cTBS,Cons,Noise,73,1,0,0.501140599953942,1
13645,142,Larynx,Left cTBS,Cons,Noise,74,1,0,0.6244457000866529,1
13646,142,Larynx,Left cTBS,Cons,Noise,75,1,0,0.547381700016558,1
13647,142,Larynx,Left cTBS,Cons,Noise,76,1,0,0.585207199910656,1
13648,142,Larynx,Left cTBS,Cons,Noise,77,3,0,0.524867400061339,1
13649,142,Larynx,Left cTBS,Cons,Noise,78,2,0,0.7026810999959711,1
13650,142,Larynx,Left cTBS,Cons,Noise,79,3,1,0.470159799908288,1
13651,142,Larynx,Left cTBS,Cons,Noise,80,1,0,0.49574719998054206,1
13652,142,Larynx,Left cTBS,Cons,Noise,81,3,1,0.42532909999135904,1
13653,142,Larynx,Left cTBS,Cons,Noise,82,1,0,0.487855799961835,1
13654,142,Larynx,Left cTBS,Cons,Noise,83,3,1,0.52787490002811,1
13655,142,Larynx,Left cTBS,Cons,Noise,84,4,1,0.720174200017937,1
13656,142,Larynx,Left cTBS,Cons,Noise,85,4,1,0.803190300008282,1
13657,142,Larynx,Left cTBS,Cons,Noise,86,4,0,0.6801687999395649,1
13658,142,Larynx,Left cTBS,Cons,Noise,87,4,1,0.6526658000657329,1
13659,142,Larynx,Left cTBS,Cons,Noise,88,5,1,0.625719900010154,1
13660,142,Larynx,Left cTBS,Cons,Noise,89,5,1,0.598628000007011,1
13661,142,Larynx,Left cTBS,Cons,Noise,90,3,0,0.7872364000650122,1
13662,142,Larynx,Left cTBS,Cons,Noise,91,3,1,0.45126600004732603,1
13663,142,Larynx,Left cTBS,Cons,Noise,92,3,0,0.983402900048532,1
13664,142,Larynx,Left cTBS,Cons,Noise,93,1,0,0.6764048999175429,1
13665,142,Larynx,Left cTBS,Cons,Noise,94,3,0,0.687613400048576,1
13666,142,Larynx,Left cTBS,Cons,Noise,95,1,0,0.5432692000176761,1
13667,142,Larynx,Left cTBS,Cons,Noise,96,5,1,0.508885100018233,1
13668,142,Larynx,Left cTBS,Cons,Noise,97,4,1,0.52092099993024,1
13669,142,Larynx,Left cTBS,Cons,Noise,98,2,1,0.479039300000295,1
13670,142,Larynx,Left cTBS,Cons,Noise,99,5,1,0.818370699998923,1
13671,142,Larynx,Left cTBS,Cons,Noise,100,3,0,0.604401999968104,1
13672,142,Larynx,Left cTBS,Cons,Noise,101,2,0,0.7722328000236299,1
13673,142,Larynx,Left cTBS,Cons,Noise,102,5,1,0.6843900999519971,1
13674,142,Larynx,Left cTBS,Cons,Noise,103,4,1,0.45193540002219396,1
13675,142,Larynx,Left cTBS,Cons,Noise,104,2,1,0.698934499989264,1
13676,142,Larynx,Left cTBS,Cons,Noise,105,5,1,0.893159599974751,1
13677,142,Larynx,Left cTBS,Cons,Noise,106,2,0,0.7608307999325921,1
13678,142,Larynx,Left cTBS,Cons,Noise,107,1,0,0.649257199955173,1
13679,142,Larynx,Left cTBS,Cons,Noise,108,3,1,0.772463099914603,1
13680,142,Larynx,Left cTBS,Cons,Noise,109,2,0,0.7811423999955881,1
13681,142,Larynx,Left cTBS,Cons,Noise,110,1,0,0.58622249995824,1
13682,142,Larynx,Left cTBS,Cons,Noise,111,2,0,0.989584399969317,1
13683,142,Larynx,Left cTBS,Cons,Noise,112,3,1,0.43794710002839604,1
13684,142,Larynx,Left cTBS,Cons,Noise,113,2,1,0.5710859999526291,1
13685,142,Larynx,Left cTBS,Cons,Noise,114,3,1,0.664392700069584,1
13686,142,Larynx,Left cTBS,Cons,Noise,115,4,0,0.5670825999695811,1
13687,142,Larynx,Left cTBS,Cons,Noise,116,4,1,0.6423821999924261,1
13688,142,Larynx,Left cTBS,Cons,Noise,117,2,0,0.8342935999389741,1
13689,142,Larynx,Left cTBS,Cons,Noise,118,2,1,0.564680500072427,1
13690,142,Larynx,Left cTBS,Cons,Noise,119,5,0,0.741994000039995,1
13691,142,Larynx,Left cTBS,Cons,Noise,120,2,1,0.45816709997598104,1
13692,142,Larynx,Left cTBS,Cons,Noise,121,3,1,0.571172800031491,1
13693,142,Larynx,Left cTBS,Cons,Noise,122,3,1,0.6615658000810071,1
13694,142,Larynx,Left cTBS,Cons,Noise,123,5,1,0.7781217000447209,1
13695,142,Larynx,Left cTBS,Cons,Noise,124,1,0,0.5205818999093029,1
13696,142,Larynx,Left cTBS,Cons,Noise,125,2,0,0.778884000028484,1
13697,142,Larynx,Left cTBS,Cons,Noise,126,1,0,0.640164599986747,1
13698,142,Larynx,Left cTBS,Cons,Noise,127,3,1,0.631544300005771,1
13699,142,Larynx,Left cTBS,Cons,Noise,128,1,0,0.611651499988511,1
13700,142,Larynx,Left cTBS,Cons,Noise,129,3,1,0.5489427000284189,1
13701,142,Larynx,Left cTBS,Cons,Noise,130,2,0,0.650808100006543,1
13702,142,Larynx,Left cTBS,Cons,Noise,131,2,1,0.514598299982026,1
13703,142,Larynx,Left cTBS,Cons,Noise,132,3,1,0.7740312999812891,1
13704,142,Larynx,Left cTBS,Cons,Noise,133,4,1,0.5513375999871639,1
13705,142,Larynx,Left cTBS,Cons,Noise,134,4,1,0.6243908000178641,1
13706,142,Larynx,Left cTBS,Cons,Noise,135,1,0,0.761642099940218,1
13707,142,Larynx,Left cTBS,Cons,Noise,136,4,1,0.608753300039098,1
13708,142,Larynx,Left cTBS,Cons,Noise,137,3,1,0.672051000059582,1
13709,142,Larynx,Left cTBS,Cons,Noise,138,3,1,0.650719399913214,1
13710,142,Larynx,Left cTBS,Cons,Noise,139,4,1,0.718736900016665,1
13711,142,Larynx,Left cTBS,Cons,Noise,140,5,1,0.677841499913484,1
13712,142,Larynx,Left cTBS,Cons,Noise,141,3,1,0.846175100072287,1
13713,142,Larynx,Left cTBS,Cons,Noise,142,2,1,0.651614499976859,1
13714,142,Larynx,Left cTBS,Cons,Noise,143,5,1,0.620385300018825,1
13715,142,Larynx,Left cTBS,Cons,Noise,144,5,1,0.624280999996699,1
13716,142,Larynx,Left cTBS,Cons,Noise,145,5,1,0.666272699949332,1
13717,142,Larynx,Left cTBS,Cons,Noise,146,4,0,0.705217499984428,1
13718,142,Larynx,Left cTBS,Cons,Noise,147,4,1,0.670970399980433,1
13719,142,Larynx,Left cTBS,Cons,Noise,148,3,1,0.524144499911927,1
13720,142,Larynx,Left cTBS,Cons,Noise,149,1,0,0.7556120998924599,1
13721,142,Larynx,Left cTBS,Cons,Noise,150,4,1,0.576051799929701,1
13722,142,Larynx,Left cTBS,Cons,Noise,151,3,0,1.01074419997167,1
13723,142,Larynx,Left cTBS,Cons,Noise,152,3,1,0.560170999960974,1
13724,142,Larynx,Left cTBS,Cons,Noise,153,2,1,0.6668910000007601,1
13725,142,Larynx,Left cTBS,Cons,Noise,154,1,0,0.7106761999893929,1
13726,142,Larynx,Left cTBS,Cons,Noise,155,4,0,0.300003600073978,1
13727,142,Larynx,Left cTBS,Cons,Noise,156,2,1,0.7449630999471991,1
15444,142,Larynx,Sham,Cons,Noise,1,5,0,0.7675883000010799,1
15445,142,Larynx,Sham,Cons,Noise,2,4,1,0.5011402999989509,1
15446,142,Larynx,Sham,Cons,Noise,3,5,1,0.667831200000364,1
15447,142,Larynx,Sham,Cons,Noise,4,1,0,0.49592180000036,1
15448,142,Larynx,Sham,Cons,Noise,5,3,1,0.44532669999898605,1
15449,142,Larynx,Sham,Cons,Noise,6,2,0,0.7316105000027159,1
15450,142,Larynx,Sham,Cons,Noise,7,3,0,0.567479800000001,1
15451,142,Larynx,Sham,Cons,Noise,8,5,1,0.422852300001978,1
15452,142,Larynx,Sham,Cons,Noise,9,2,0,0.565076599999884,1
15453,142,Larynx,Sham,Cons,Noise,10,4,1,0.498351000002003,1
15454,142,Larynx,Sham,Cons,Noise,11,5,0,0.41201309999814795,1
15455,142,Larynx,Sham,Cons,Noise,12,2,1,0.6070550000004,1
15456,142,Larynx,Sham,Cons,Noise,13,2,0,0.46341440000105605,1
15457,142,Larynx,Sham,Cons,Noise,14,4,1,0.7120673999997958,1
15458,142,Larynx,Sham,Cons,Noise,15,1,0,0.5315953999997871,1
15459,142,Larynx,Sham,Cons,Noise,16,3,1,0.429291200001899,1
15460,142,Larynx,Sham,Cons,Noise,17,3,0,0.39525309999953595,1
15461,142,Larynx,Sham,Cons,Noise,18,3,1,0.4484436999991889,1
15462,142,Larynx,Sham,Cons,Noise,19,5,0,0.38086530000146,1
15463,142,Larynx,Sham,Cons,Noise,20,2,0,0.723307899999782,1
15464,142,Larynx,Sham,Cons,Noise,21,1,1,0.4229747999997929,1
15465,142,Larynx,Sham,Cons,Noise,22,2,0,0.762383199999022,1
15466,142,Larynx,Sham,Cons,Noise,23,4,1,0.4795359000017921,1
15467,142,Larynx,Sham,Cons,Noise,24,3,0,0.44628549999833894,1
15468,142,Larynx,Sham,Cons,Noise,25,4,1,0.41286269999909603,1
15469,142,Larynx,Sham,Cons,Noise,26,1,0,0.41101390000039795,1
15470,142,Larynx,Sham,Cons,Noise,27,5,1,0.604574799999682,1
15471,142,Larynx,Sham,Cons,Noise,28,1,0,0.510990399998263,1
15472,142,Larynx,Sham,Cons,Noise,29,2,1,0.474407300000166,1
15473,142,Larynx,Sham,Cons,Noise,30,3,0,0.5092948000019529,1
15474,142,Larynx,Sham,Cons,Noise,31,4,1,0.38940139999977,1
15475,142,Larynx,Sham,Cons,Noise,32,3,1,0.6780894000003169,1
15476,142,Larynx,Sham,Cons,Noise,33,1,0,0.605543300000136,1
15477,142,Larynx,Sham,Cons,Noise,34,4,1,0.495715299999574,1
15478,142,Larynx,Sham,Cons,Noise,35,3,0,0.5925868000013,1
15479,142,Larynx,Sham,Cons,Noise,36,2,0,0.8207346000017421,1
15480,142,Larynx,Sham,Cons,Noise,37,3,1,0.547467000000324,1
15481,142,Larynx,Sham,Cons,Noise,38,4,0,0.65349040000001,1
15482,142,Larynx,Sham,Cons,Noise,39,3,0,0.669330299999274,1
15483,142,Larynx,Sham,Cons,Noise,40,4,1,0.5703226999976321,1
15484,142,Larynx,Sham,Cons,Noise,41,2,0,0.546692100000655,1
15485,142,Larynx,Sham,Cons,Noise,42,2,0,0.5965345000004161,1
15486,142,Larynx,Sham,Cons,Noise,43,3,1,0.683833400002186,1
15487,142,Larynx,Sham,Cons,Noise,44,3,1,0.9000979999982521,1
15488,142,Larynx,Sham,Cons,Noise,45,3,1,0.6567939999986271,1
15489,142,Larynx,Sham,Cons,Noise,46,4,1,0.8740210999967529,1
15490,142,Larynx,Sham,Cons,Noise,47,1,0,0.674292200001219,1
15491,142,Larynx,Sham,Cons,Noise,48,1,0,0.8024724999995669,1
15492,142,Larynx,Sham,Cons,Noise,49,2,0,0.6897734999984101,1
15493,142,Larynx,Sham,Cons,Noise,50,2,0,0.6725574999982199,1
15494,142,Larynx,Sham,Cons,Noise,51,4,1,0.7329621999997471,1
15495,142,Larynx,Sham,Cons,Noise,52,5,1,0.8420087000013149,1
15496,142,Larynx,Sham,Cons,Noise,53,5,1,0.756641600000876,1
15497,142,Larynx,Sham,Cons,Noise,54,3,0,0.7447676000010691,1
15498,142,Larynx,Sham,Cons,Noise,55,2,0,0.928237800002535,1
15499,142,Larynx,Sham,Cons,Noise,56,4,1,0.547371399999975,1
15500,142,Larynx,Sham,Cons,Noise,57,1,0,0.8572343999985609,1
15501,142,Larynx,Sham,Cons,Noise,58,1,0,0.657551500000409,1
15502,142,Larynx,Sham,Cons,Noise,59,3,1,0.694905600001221,1
15503,142,Larynx,Sham,Cons,Noise,60,3,0,0.600215400001616,1
15504,142,Larynx,Sham,Cons,Noise,61,2,0,0.752581000000646,1
15505,142,Larynx,Sham,Cons,Noise,62,5,1,0.680973099999392,1
15506,142,Larynx,Sham,Cons,Noise,63,4,0,0.741893999998865,1
15507,142,Larynx,Sham,Cons,Noise,64,5,1,0.647873499998241,1
15508,142,Larynx,Sham,Cons,Noise,65,3,1,0.7577479999999921,1
15509,142,Larynx,Sham,Cons,Noise,66,4,1,0.687604099999589,1
15510,142,Larynx,Sham,Cons,Noise,67,3,1,0.7994092000008101,1
15511,142,Larynx,Sham,Cons,Noise,68,1,0,0.504560100001981,1
15512,142,Larynx,Sham,Cons,Noise,69,5,1,0.657384599999205,1
15513,142,Larynx,Sham,Cons,Noise,70,1,0,0.9748327999986941,1
15514,142,Larynx,Sham,Cons,Noise,71,3,0,0.7352127999984079,1
15515,142,Larynx,Sham,Cons,Noise,72,5,1,0.736258299999463,1
15516,142,Larynx,Sham,Cons,Noise,73,3,0,0.707987799996772,1
15517,142,Larynx,Sham,Cons,Noise,74,3,1,0.613466100003279,1
15518,142,Larynx,Sham,Cons,Noise,75,2,0,0.833362599998509,1
15519,142,Larynx,Sham,Cons,Noise,76,4,1,0.844083699998009,1
15520,142,Larynx,Sham,Cons,Noise,77,2,1,0.8293058000017479,1
15521,142,Larynx,Sham,Cons,Noise,78,4,1,0.71311059999789,1
15522,142,Larynx,Sham,Cons,Noise,79,2,0,0.8967322999997122,1
15523,142,Larynx,Sham,Cons,Noise,80,3,1,0.6115954000015339,1
15524,142,Larynx,Sham,Cons,Noise,81,5,1,0.7282545999987629,1
15525,142,Larynx,Sham,Cons,Noise,82,4,1,0.698184299999411,1
15526,142,Larynx,Sham,Cons,Noise,83,1,0,0.664095500000258,1
15527,142,Larynx,Sham,Cons,Noise,84,2,1,0.658355600000505,1
15528,142,Larynx,Sham,Cons,Noise,85,5,1,0.734724400001141,1
15529,142,Larynx,Sham,Cons,Noise,86,1,0,0.7284523999987871,1
15530,142,Larynx,Sham,Cons,Noise,87,3,1,0.6321434999990739,1
15531,142,Larynx,Sham,Cons,Noise,88,1,0,0.774404000003415,1
15532,142,Larynx,Sham,Cons,Noise,89,3,0,0.8122800999990429,1
15533,142,Larynx,Sham,Cons,Noise,90,1,0,0.633385900000576,1
15534,142,Larynx,Sham,Cons,Noise,91,4,1,0.6245066999981651,1
15535,142,Larynx,Sham,Cons,Noise,92,5,1,0.6531709000009871,1
15536,142,Larynx,Sham,Cons,Noise,93,4,1,0.678112800000235,1
15537,142,Larynx,Sham,Cons,Noise,94,4,1,0.909543800000392,1
15538,142,Larynx,Sham,Cons,Noise,95,5,1,0.8260626000010229,1
15539,142,Larynx,Sham,Cons,Noise,96,2,0,0.646183599998039,1
15540,142,Larynx,Sham,Cons,Noise,97,2,1,0.7944453999989491,1
15541,142,Larynx,Sham,Cons,Noise,98,5,1,0.9437459000000671,1
15542,142,Larynx,Sham,Cons,Noise,99,3,1,0.653730999998515,1
15543,142,Larynx,Sham,Cons,Noise,100,3,1,0.9755485000023331,1
15544,142,Larynx,Sham,Cons,Noise,101,4,1,0.6750428000013929,1
15545,142,Larynx,Sham,Cons,Noise,102,2,0,0.638468900000589,1
15546,142,Larynx,Sham,Cons,Noise,103,2,0,0.624313699998311,1
15547,142,Larynx,Sham,Cons,Noise,104,1,0,0.6990216000012879,1
15548,142,Larynx,Sham,Cons,Noise,105,4,1,0.636636700000963,1
15549,142,Larynx,Sham,Cons,Noise,106,3,1,0.639819399999396,1
15550,142,Larynx,Sham,Cons,Noise,107,3,1,0.6053657999982529,1
15551,142,Larynx,Sham,Cons,Noise,108,3,1,0.6438454000017371,1
15552,142,Larynx,Sham,Cons,Noise,109,4,1,0.616952700002003,1
15553,142,Larynx,Sham,Cons,Noise,110,5,1,0.6544766999977579,1
15554,142,Larynx,Sham,Cons,Noise,111,2,1,0.70037560000128,1
15555,142,Larynx,Sham,Cons,Noise,112,2,0,0.46981550000055,1
15556,142,Larynx,Sham,Cons,Noise,113,3,1,0.620441899998696,1
15557,142,Larynx,Sham,Cons,Noise,114,3,0,0.54395089999889,1
15558,142,Larynx,Sham,Cons,Noise,115,3,1,0.49395139999978704,1
15559,142,Larynx,Sham,Cons,Noise,116,1,0,0.48032519999833295,1
15560,142,Larynx,Sham,Cons,Noise,117,4,1,0.445904799998971,1
15561,142,Larynx,Sham,Cons,Noise,118,2,0,0.394790600003034,1
15562,142,Larynx,Sham,Cons,Noise,119,4,1,0.6186481000004279,1
15563,142,Larynx,Sham,Cons,Noise,120,2,0,0.5722534999986241,1
15564,142,Larynx,Sham,Cons,Noise,121,3,1,0.7195009000024579,1
15565,142,Larynx,Sham,Cons,Noise,122,2,0,0.37894779999987793,1
15566,142,Larynx,Sham,Cons,Noise,123,5,1,0.624508600001718,1
15567,142,Larynx,Sham,Cons,Noise,124,3,1,0.8833770000019291,1
15568,142,Larynx,Sham,Cons,Noise,125,5,1,0.8547828000009761,1
15569,142,Larynx,Sham,Cons,Noise,126,4,1,0.5823392999991479,1
15570,142,Larynx,Sham,Cons,Noise,127,4,1,0.612279599998146,1
15571,142,Larynx,Sham,Cons,Noise,128,1,0,0.6860588999988979,1
15572,142,Larynx,Sham,Cons,Noise,129,3,1,0.753808400000707,1
15573,142,Larynx,Sham,Cons,Noise,130,5,0,0.42110719999982393,1
15574,142,Larynx,Sham,Cons,Noise,131,4,1,0.9033810000000809,1
15575,142,Larynx,Sham,Cons,Noise,132,2,0,1.1545927000006497,1
15576,142,Larynx,Sham,Cons,Noise,133,3,1,0.682365799999388,1
15577,142,Larynx,Sham,Cons,Noise,134,2,0,0.735612300002686,1
15578,142,Larynx,Sham,Cons,Noise,135,5,1,0.7487062000000151,1
15579,142,Larynx,Sham,Cons,Noise,136,3,0,1.04528209999989,1
15580,142,Larynx,Sham,Cons,Noise,137,3,1,0.6054064999989351,1
15581,142,Larynx,Sham,Cons,Noise,138,2,0,0.73500299999796,1
15582,142,Larynx,Sham,Cons,Noise,139,1,0,0.8431302999997571,1
15583,142,Larynx,Sham,Cons,Noise,140,4,1,0.5556201999970649,1
15584,142,Larynx,Sham,Cons,Noise,141,1,1,1.05815710000024,1
15585,142,Larynx,Sham,Cons,Noise,142,3,0,0.742039299999306,1
15586,142,Larynx,Sham,Cons,Noise,143,4,1,0.695381099998485,1
15587,142,Larynx,Sham,Cons,Noise,144,4,1,0.8540538999986892,1
15588,142,Larynx,Sham,Cons,Noise,145,1,1,0.6954746999981579,1
15589,142,Larynx,Sham,Cons,Noise,146,2,0,0.82590429999982,1
15590,142,Larynx,Sham,Cons,Noise,147,3,0,0.7611985000003191,1
15591,142,Larynx,Sham,Cons,Noise,148,5,1,0.612771899999643,1
15592,142,Larynx,Sham,Cons,Noise,149,4,1,0.7279385999972869,1
15593,142,Larynx,Sham,Cons,Noise,150,5,1,0.64741629999844,1
15594,142,Larynx,Sham,Cons,Noise,151,3,0,0.6094019999982271,1
15595,142,Larynx,Sham,Cons,Noise,152,2,0,0.79682590000084,1
15596,142,Larynx,Sham,Cons,Noise,153,3,1,0.5204978000001571,1
15597,142,Larynx,Sham,Cons,Noise,154,3,1,0.742331700002978,1
15598,142,Larynx,Sham,Cons,Noise,155,1,0,0.5865603999991441,1
15599,142,Larynx,Sham,Cons,Noise,156,1,0,0.926279199997225,1
16692,201,Larynx,Left cTBS,Cons,Noise,1,4,1,1.16323210002156,1
16693,201,Larynx,Left cTBS,Cons,Noise,2,3,1,0.79598920000717,1
16694,201,Larynx,Left cTBS,Cons,Noise,3,3,1,0.802282699965872,1
16695,201,Larynx,Left cTBS,Cons,Noise,4,5,1,0.7326188000151891,1
16696,201,Larynx,Left cTBS,Cons,Noise,5,4,1,0.674010900023859,1
16697,201,Larynx,Left cTBS,Cons,Noise,6,4,1,0.704921199998353,1
16698,201,Larynx,Left cTBS,Cons,Noise,7,1,1,0.6948482999578119,1
16699,201,Larynx,Left cTBS,Cons,Noise,8,5,1,0.6997644000221039,1
16700,201,Larynx,Left cTBS,Cons,Noise,9,5,1,0.603435299999546,1
16701,201,Larynx,Left cTBS,Cons,Noise,10,2,1,0.736049500002991,1
16702,201,Larynx,Left cTBS,Cons,Noise,11,3,1,0.675571700034197,1
16703,201,Larynx,Left cTBS,Cons,Noise,12,3,1,0.7520328999962659,1
16704,201,Larynx,Left cTBS,Cons,Noise,13,3,1,0.732500399986748,1
16705,201,Larynx,Left cTBS,Cons,Noise,14,1,0,0.720820499991532,1
16706,201,Larynx,Left cTBS,Cons,Noise,15,3,0,0.92044849996455,1
16707,201,Larynx,Left cTBS,Cons,Noise,16,2,0,0.9490339999902059,1
16708,201,Larynx,Left cTBS,Cons,Noise,17,3,0,0.787820000026841,1
16709,201,Larynx,Left cTBS,Cons,Noise,18,4,1,0.795336999988649,1
16710,201,Larynx,Left cTBS,Cons,Noise,19,4,1,0.745926400006283,1
16711,201,Larynx,Left cTBS,Cons,Noise,20,4,1,0.6895588000188578,1
16712,201,Larynx,Left cTBS,Cons,Noise,21,1,1,0.582351699995343,1
16713,201,Larynx,Left cTBS,Cons,Noise,22,2,1,0.6726440000347789,1
16714,201,Larynx,Left cTBS,Cons,Noise,23,4,1,0.712078799959272,1
16715,201,Larynx,Left cTBS,Cons,Noise,24,3,1,0.6374687000061391,1
16716,201,Larynx,Left cTBS,Cons,Noise,25,1,1,1.06786180002382,1
16717,201,Larynx,Left cTBS,Cons,Noise,26,1,0,0.9259812000091191,1
16718,201,Larynx,Left cTBS,Cons,Noise,27,2,0,0.835460199974477,1
16719,201,Larynx,Left cTBS,Cons,Noise,28,5,1,0.7416492999764159,1
16720,201,Larynx,Left cTBS,Cons,Noise,29,2,1,0.9011936000315469,1
16721,201,Larynx,Left cTBS,Cons,Noise,30,2,1,0.724136100034229,1
16722,201,Larynx,Left cTBS,Cons,Noise,31,3,1,0.7550192999769929,1
16723,201,Larynx,Left cTBS,Cons,Noise,32,2,1,0.654892400023527,1
16724,201,Larynx,Left cTBS,Cons,Noise,33,4,1,0.743228599953,1
16725,201,Larynx,Left cTBS,Cons,Noise,34,1,0,0.674994700006209,1
16726,201,Larynx,Left cTBS,Cons,Noise,35,2,0,0.8803457000176421,1
16727,201,Larynx,Left cTBS,Cons,Noise,36,5,1,0.730659799999557,1
16728,201,Larynx,Left cTBS,Cons,Noise,37,3,1,0.683119599998463,1
16729,201,Larynx,Left cTBS,Cons,Noise,38,5,1,0.6868127000052479,1
16730,201,Larynx,Left cTBS,Cons,Noise,39,3,1,0.511505500006024,1
