,subj_idx,group_idx,turn_type,task_type,snr_type,trial_num,step_att,response,rt,step_unatnd
0,55,Larynx,Left iTBS,Tone,Clear,1,3,1,1.08331650000764,1
1,55,Larynx,Left iTBS,Tone,Clear,2,4,1,0.744397100002971,1
2,55,Larynx,Left iTBS,Tone,Clear,3,4,1,0.732524699997157,1
3,55,Larynx,Left iTBS,Tone,Clear,4,5,1,0.8001992999925279,1
4,55,Larynx,Left iTBS,Tone,Clear,5,4,1,0.7536485000164251,1
5,55,Larynx,Left iTBS,Tone,Clear,6,4,1,0.544651599950157,1
6,55,Larynx,Left iTBS,Tone,Clear,7,5,1,0.6213131999829781,1
7,55,Larynx,Left iTBS,Tone,Clear,8,5,1,0.580819099966902,1
8,55,Larynx,Left iTBS,Tone,Clear,9,1,0,0.496794099977706,1
9,55,Larynx,Left iTBS,Tone,Clear,10,3,1,0.8638691999949509,1
10,55,Larynx,Left iTBS,Tone,Clear,11,5,1,0.613968499994371,1
11,55,Larynx,Left iTBS,Tone,Clear,12,2,0,0.6056093999650329,1
12,55,Larynx,Left iTBS,Tone,Clear,13,3,1,0.668521999963559,1
13,55,Larynx,Left iTBS,Tone,Clear,14,1,0,0.476927699986845,1
14,55,Larynx,Left iTBS,Tone,Clear,15,1,0,0.487234400003217,1
15,55,Larynx,Left iTBS,Tone,Clear,16,2,1,0.5684725000173779,1
16,55,Larynx,Left iTBS,Tone,Clear,17,3,1,0.570505500014406,1
17,55,Larynx,Left iTBS,Tone,Clear,18,1,0,0.508582199981902,1
18,55,Larynx,Left iTBS,Tone,Clear,19,3,1,0.478658500011079,1
19,55,Larynx,Left iTBS,Tone,Clear,20,3,1,0.5937984000192961,1
20,55,Larynx,Left iTBS,Tone,Clear,21,3,1,0.6783689999720078,1
21,55,Larynx,Left iTBS,Tone,Clear,22,4,1,0.515360399964266,1
22,55,Larynx,Left iTBS,Tone,Clear,23,4,1,0.5097616000566629,1
23,55,Larynx,Left iTBS,Tone,Clear,24,5,1,0.47818149998784104,1
24,55,Larynx,Left iTBS,Tone,Clear,25,3,0,0.6292409999878149,1
25,55,Larynx,Left iTBS,Tone,Clear,26,3,1,0.5557875999948011,1
26,55,Larynx,Left iTBS,Tone,Clear,27,3,1,1.2881899000494699,1
27,55,Larynx,Left iTBS,Tone,Clear,28,1,0,0.511307100008707,1
28,55,Larynx,Left iTBS,Tone,Clear,29,4,1,0.705836699984502,1
29,55,Larynx,Left iTBS,Tone,Clear,30,2,0,0.660614600055851,1
30,55,Larynx,Left iTBS,Tone,Clear,31,2,0,0.905101399985142,1
31,55,Larynx,Left iTBS,Tone,Clear,32,3,1,0.46130369999446,1
32,55,Larynx,Left iTBS,Tone,Clear,33,4,1,0.514059900015127,1
33,55,Larynx,Left iTBS,Tone,Clear,34,5,1,0.508001899986994,1
34,55,Larynx,Left iTBS,Tone,Clear,35,2,0,0.527861399983522,1
35,55,Larynx,Left iTBS,Tone,Clear,36,2,0,0.8200300000025891,1
36,55,Larynx,Left iTBS,Tone,Clear,37,2,0,0.6283027999452321,1
37,55,Larynx,Left iTBS,Tone,Clear,38,1,0,0.481181699957233,1
38,55,Larynx,Left iTBS,Tone,Clear,39,2,1,0.525274999963585,1
39,55,Larynx,Left iTBS,Tone,Clear,40,4,1,0.795442599977832,1
40,55,Larynx,Left iTBS,Tone,Clear,41,3,1,0.671459500037599,1
41,55,Larynx,Left iTBS,Tone,Clear,42,4,1,0.5363532999763271,1
42,55,Larynx,Left iTBS,Tone,Clear,43,1,0,0.509653499990236,1
43,55,Larynx,Left iTBS,Tone,Clear,44,1,0,0.6157384000252929,1
44,55,Larynx,Left iTBS,Tone,Clear,45,2,0,0.507388400030322,1
45,55,Larynx,Left iTBS,Tone,Clear,46,4,1,0.6031135999946861,1
46,55,Larynx,Left iTBS,Tone,Clear,47,4,1,0.524125800002366,1
47,55,Larynx,Left iTBS,Tone,Clear,48,5,1,0.5012925000046379,1
48,55,Larynx,Left iTBS,Tone,Clear,49,4,1,0.480825399979949,1
49,55,Larynx,Left iTBS,Tone,Clear,50,2,0,0.635930099990219,1
50,55,Larynx,Left iTBS,Tone,Clear,51,1,0,0.535857099981513,1
51,55,Larynx,Left iTBS,Tone,Clear,52,3,1,0.659782799950335,1
52,55,Larynx,Left iTBS,Tone,Clear,53,5,1,0.831306800013408,1
53,55,Larynx,Left iTBS,Tone,Clear,54,2,0,0.868194499984384,1
54,55,Larynx,Left iTBS,Tone,Clear,55,2,0,0.559902100008912,1
55,55,Larynx,Left iTBS,Tone,Clear,56,3,1,0.743969000002835,1
56,55,Larynx,Left iTBS,Tone,Clear,57,5,1,0.667906099988613,1
57,55,Larynx,Left iTBS,Tone,Clear,58,3,1,0.840469199989457,1
58,55,Larynx,Left iTBS,Tone,Clear,59,3,1,0.521929900045507,1
59,55,Larynx,Left iTBS,Tone,Clear,60,2,0,0.6302926999633199,1
60,55,Larynx,Left iTBS,Tone,Clear,61,3,1,1.00360240001464,1
61,55,Larynx,Left iTBS,Tone,Clear,62,4,1,0.645053700020071,1
62,55,Larynx,Left iTBS,Tone,Clear,63,3,1,0.6471420999732801,1
63,55,Larynx,Left iTBS,Tone,Clear,64,5,1,0.53456629998982,1
64,55,Larynx,Left iTBS,Tone,Clear,65,3,1,0.692447100009304,1
65,55,Larynx,Left iTBS,Tone,Clear,66,3,1,0.795012899965514,1
66,55,Larynx,Left iTBS,Tone,Clear,67,4,1,0.567858599999454,1
67,55,Larynx,Left iTBS,Tone,Clear,68,1,0,0.561941299994942,1
68,55,Larynx,Left iTBS,Tone,Clear,69,3,1,0.5861784000298941,1
69,55,Larynx,Left iTBS,Tone,Clear,70,5,1,0.692097499966621,1
70,55,Larynx,Left iTBS,Tone,Clear,71,3,1,0.576487400045153,1
71,55,Larynx,Left iTBS,Tone,Clear,72,4,1,0.589945300016552,1
72,55,Larynx,Left iTBS,Tone,Clear,73,5,1,0.5080640999949539,1
73,55,Larynx,Left iTBS,Tone,Clear,74,2,0,0.53980769996997,1
74,55,Larynx,Left iTBS,Tone,Clear,75,1,0,1.0603156000142901,1
75,55,Larynx,Left iTBS,Tone,Clear,76,2,0,0.7004673999617811,1
76,55,Larynx,Left iTBS,Tone,Clear,77,1,0,0.648553499951959,1
77,55,Larynx,Left iTBS,Tone,Clear,78,2,0,0.997714299999643,1
78,55,Larynx,Left iTBS,Tone,Clear,79,5,1,0.609708500036504,1
79,55,Larynx,Left iTBS,Tone,Clear,80,2,0,0.8495791000314058,1
80,55,Larynx,Left iTBS,Tone,Clear,81,2,0,1.2812297999626001,1
81,55,Larynx,Left iTBS,Tone,Clear,82,2,0,0.7396814999519851,1
82,55,Larynx,Left iTBS,Tone,Clear,83,4,1,0.47225900000194104,1
83,55,Larynx,Left iTBS,Tone,Clear,84,2,1,0.789456599974073,1
84,55,Larynx,Left iTBS,Tone,Clear,85,2,0,1.00051079998957,1
85,55,Larynx,Left iTBS,Tone,Clear,86,1,0,0.683173299999908,1
86,55,Larynx,Left iTBS,Tone,Clear,87,5,1,0.6440661000087861,1
87,55,Larynx,Left iTBS,Tone,Clear,88,5,1,0.561994499992579,1
88,55,Larynx,Left iTBS,Tone,Clear,89,3,1,0.8987859999760991,1
89,55,Larynx,Left iTBS,Tone,Clear,90,3,1,0.7382737000007181,1
90,55,Larynx,Left iTBS,Tone,Clear,91,3,1,0.900994700030424,1
91,55,Larynx,Left iTBS,Tone,Clear,92,4,1,0.6776485999580469,1
92,55,Larynx,Left iTBS,Tone,Clear,93,4,1,0.8220715000061322,1
93,55,Larynx,Left iTBS,Tone,Clear,94,5,1,0.7150499999988821,1
94,55,Larynx,Left iTBS,Tone,Clear,95,4,1,0.56752460001735,1
95,55,Larynx,Left iTBS,Tone,Clear,96,5,1,0.522884700039867,1
96,55,Larynx,Left iTBS,Tone,Clear,97,1,0,0.514032099978067,1
97,55,Larynx,Left iTBS,Tone,Clear,98,3,0,1.09590009995736,1
98,55,Larynx,Left iTBS,Tone,Clear,99,1,0,0.730470599955879,1
99,55,Larynx,Left iTBS,Tone,Clear,100,3,1,0.686164000013378,1
100,55,Larynx,Left iTBS,Tone,Clear,101,1,0,0.5297120999894099,1
101,55,Larynx,Left iTBS,Tone,Clear,102,4,1,0.6318317999830471,1
102,55,Larynx,Left iTBS,Tone,Clear,103,3,1,0.737406200030819,1
103,55,Larynx,Left iTBS,Tone,Clear,104,4,1,0.616881499998271,1
104,55,Larynx,Left iTBS,Tone,Clear,105,2,1,0.8226574000436809,1
105,55,Larynx,Left iTBS,Tone,Clear,106,3,1,0.691876200027764,1
106,55,Larynx,Left iTBS,Tone,Clear,107,3,1,0.6281521999626422,1
107,55,Larynx,Left iTBS,Tone,Clear,108,5,1,0.62691900000209,1
108,55,Larynx,Left iTBS,Tone,Clear,109,3,1,0.631262399954721,1
109,55,Larynx,Left iTBS,Tone,Clear,110,2,0,0.7139872999978248,1
110,55,Larynx,Left iTBS,Tone,Clear,111,1,0,1.1298730999697,1
111,55,Larynx,Left iTBS,Tone,Clear,112,4,1,0.584965899994131,1
112,55,Larynx,Left iTBS,Tone,Clear,113,3,1,0.601707499998156,1
113,55,Larynx,Left iTBS,Tone,Clear,114,4,1,0.529653200006578,1
114,55,Larynx,Left iTBS,Tone,Clear,115,1,0,0.637183299986646,1
115,55,Larynx,Left iTBS,Tone,Clear,116,2,0,0.83127029996831,1
116,55,Larynx,Left iTBS,Tone,Clear,117,3,1,0.5630139000131751,1
117,55,Larynx,Left iTBS,Tone,Clear,118,1,0,0.7817363999783989,1
118,55,Larynx,Left iTBS,Tone,Clear,119,3,1,0.601316399988718,1
119,55,Larynx,Left iTBS,Tone,Clear,120,1,0,0.7927857000031509,1
120,55,Larynx,Left iTBS,Tone,Clear,121,3,1,0.637419999984559,1
121,55,Larynx,Left iTBS,Tone,Clear,122,2,0,0.957057600026019,1
122,55,Larynx,Left iTBS,Tone,Clear,123,4,1,0.559527400007937,1
123,55,Larynx,Left iTBS,Tone,Clear,124,4,1,0.564744299976155,1
124,55,Larynx,Left iTBS,Tone,Clear,125,3,1,0.6693914000061341,1
125,55,Larynx,Left iTBS,Tone,Clear,126,3,1,0.527709700050764,1
126,55,Larynx,Left iTBS,Tone,Clear,127,2,0,0.73456090001855,1
127,55,Larynx,Left iTBS,Tone,Clear,128,4,1,0.606494000006933,1
128,55,Larynx,Left iTBS,Tone,Clear,129,5,1,0.5996489000390279,1
129,55,Larynx,Left iTBS,Tone,Clear,130,2,0,1.25973079999676,1
130,55,Larynx,Left iTBS,Tone,Clear,131,1,0,1.1502631999901498,1
131,55,Larynx,Left iTBS,Tone,Clear,132,2,0,1.00584040000103,1
132,55,Larynx,Left iTBS,Tone,Clear,133,5,1,0.579223999986425,1
133,55,Larynx,Left iTBS,Tone,Clear,134,3,1,1.07660719996784,1
134,55,Larynx,Left iTBS,Tone,Clear,135,3,1,1.0754388999776,1
135,55,Larynx,Left iTBS,Tone,Clear,136,3,1,0.847524999990128,1
136,55,Larynx,Left iTBS,Tone,Clear,137,2,0,0.707697900012136,1
137,55,Larynx,Left iTBS,Tone,Clear,138,3,1,0.6857559999916701,1
138,55,Larynx,Left iTBS,Tone,Clear,139,4,1,0.54876430000877,1
139,55,Larynx,Left iTBS,Tone,Clear,140,3,1,0.636613000009675,1
140,55,Larynx,Left iTBS,Tone,Clear,141,4,1,0.6096031999913979,1
141,55,Larynx,Left iTBS,Tone,Clear,142,1,0,0.9529217000235799,1
142,55,Larynx,Left iTBS,Tone,Clear,143,5,1,0.7153638000017959,1
143,55,Larynx,Left iTBS,Tone,Clear,144,2,0,0.690386100031901,1
144,55,Larynx,Left iTBS,Tone,Clear,145,3,1,0.717549499997403,1
145,55,Larynx,Left iTBS,Tone,Clear,146,4,1,1.64655329997186,1
146,55,Larynx,Left iTBS,Tone,Clear,147,1,0,0.7175801999983381,1
147,55,Larynx,Left iTBS,Tone,Clear,148,1,0,1.04456189996563,1
148,55,Larynx,Left iTBS,Tone,Clear,149,2,0,0.7703653000062328,1
149,55,Larynx,Left iTBS,Tone,Clear,150,5,1,0.6897677999804731,1
150,55,Larynx,Left iTBS,Tone,Clear,151,5,1,0.582923599984497,1
151,55,Larynx,Left iTBS,Tone,Clear,152,5,1,0.645349900005385,1
152,55,Larynx,Left iTBS,Tone,Clear,153,4,1,2.4759910999564503,1
153,55,Larynx,Left iTBS,Tone,Clear,154,3,1,0.6674745999625881,1
154,55,Larynx,Left iTBS,Tone,Clear,155,2,0,0.6022035999922081,1
155,55,Larynx,Left iTBS,Tone,Clear,156,4,1,0.519563800015021,1
2496,55,Larynx,Sham,Tone,Clear,1,3,1,1.16881900001317,1
2497,55,Larynx,Sham,Tone,Clear,2,3,1,0.6229444000637161,1
2498,55,Larynx,Sham,Tone,Clear,3,5,1,0.5427850000560279,1
2499,55,Larynx,Sham,Tone,Clear,4,1,0,0.521256300038658,1
2500,55,Larynx,Sham,Tone,Clear,5,2,0,1.0965779999969498,1
2501,55,Larynx,Sham,Tone,Clear,6,3,1,0.7118821999756619,1
2502,55,Larynx,Sham,Tone,Clear,7,2,1,1.24664759996813,1
2503,55,Larynx,Sham,Tone,Clear,8,2,1,0.6426535999635229,1
2504,55,Larynx,Sham,Tone,Clear,9,5,1,0.603717499994673,1
2505,55,Larynx,Sham,Tone,Clear,10,4,1,0.5435097999870779,1
2506,55,Larynx,Sham,Tone,Clear,11,5,1,0.876524100080132,1
2507,55,Larynx,Sham,Tone,Clear,12,1,0,0.6741131999297071,1
2508,55,Larynx,Sham,Tone,Clear,13,1,0,0.574243400013074,1
2509,55,Larynx,Sham,Tone,Clear,14,4,1,0.5846750000491739,1
2510,55,Larynx,Sham,Tone,Clear,15,5,1,1.0364407999440999,1
2511,55,Larynx,Sham,Tone,Clear,16,2,1,2.95307950000279,1
2512,55,Larynx,Sham,Tone,Clear,17,4,1,0.711600700044073,1
2513,55,Larynx,Sham,Tone,Clear,18,4,1,1.07111579994671,1
2514,55,Larynx,Sham,Tone,Clear,19,3,1,0.56396209995728,1
2515,55,Larynx,Sham,Tone,Clear,20,3,1,0.515576799982227,1
2516,55,Larynx,Sham,Tone,Clear,21,2,1,2.68179109995253,1
2517,55,Larynx,Sham,Tone,Clear,22,1,0,0.639202299993485,1
2518,55,Larynx,Sham,Tone,Clear,23,4,1,0.691141200019047,1
2519,55,Larynx,Sham,Tone,Clear,24,3,1,0.8956523000961171,1
2520,55,Larynx,Sham,Tone,Clear,25,3,1,0.6435827999375761,1
2521,55,Larynx,Sham,Tone,Clear,26,3,1,0.883813200052828,1
2522,55,Larynx,Sham,Tone,Clear,27,1,0,0.6890199999324979,1
2523,55,Larynx,Sham,Tone,Clear,28,5,1,0.664948099991307,1
2524,55,Larynx,Sham,Tone,Clear,29,2,0,2.2324013999896097,1
2525,55,Larynx,Sham,Tone,Clear,30,4,1,1.25563159992453,1
2526,55,Larynx,Sham,Tone,Clear,31,2,0,0.669360700063407,1
2527,55,Larynx,Sham,Tone,Clear,32,3,1,1.1706902999430902,1
2528,55,Larynx,Sham,Tone,Clear,33,3,1,0.8368011000566179,1
2529,55,Larynx,Sham,Tone,Clear,34,2,1,1.86905669991393,1
2530,55,Larynx,Sham,Tone,Clear,35,4,1,0.644219999900088,1
2531,55,Larynx,Sham,Tone,Clear,36,3,1,0.927137000020593,1
2532,55,Larynx,Sham,Tone,Clear,37,5,1,0.693377599935047,1
2533,55,Larynx,Sham,Tone,Clear,38,1,0,0.56275669997558,1
2534,55,Larynx,Sham,Tone,Clear,39,4,1,0.923118100035936,1
2535,55,Larynx,Sham,Tone,Clear,40,5,1,0.610601200023666,1
2536,55,Larynx,Sham,Tone,Clear,41,3,1,0.713091999990866,1
2537,55,Larynx,Sham,Tone,Clear,42,3,1,0.7634973999811341,1
2538,55,Larynx,Sham,Tone,Clear,43,4,1,0.720973399933428,1
2539,55,Larynx,Sham,Tone,Clear,44,3,1,0.793034699978307,1
2540,55,Larynx,Sham,Tone,Clear,45,4,1,1.46119459997863,1
2541,55,Larynx,Sham,Tone,Clear,46,1,0,0.648440200020559,1
2542,55,Larynx,Sham,Tone,Clear,47,3,1,1.20539150002878,1
2543,55,Larynx,Sham,Tone,Clear,48,2,0,1.29794419999234,1
2544,55,Larynx,Sham,Tone,Clear,49,1,0,0.8098574000177909,1
2545,55,Larynx,Sham,Tone,Clear,50,4,1,0.651255900040269,1
2546,55,Larynx,Sham,Tone,Clear,51,3,1,0.8636850999901071,1
2547,55,Larynx,Sham,Tone,Clear,52,3,1,1.59669440006837,1
2548,55,Larynx,Sham,Tone,Clear,53,1,0,0.637204200029373,1
2549,55,Larynx,Sham,Tone,Clear,54,5,1,0.730239399941638,1
2550,55,Larynx,Sham,Tone,Clear,55,2,1,0.75552120001521,1
2551,55,Larynx,Sham,Tone,Clear,56,1,0,0.8031847000820559,1
2552,55,Larynx,Sham,Tone,Clear,57,4,1,0.61292730004061,1
2553,55,Larynx,Sham,Tone,Clear,58,4,1,0.604926100000739,1
2554,55,Larynx,Sham,Tone,Clear,59,2,1,0.93306810001377,1
2555,55,Larynx,Sham,Tone,Clear,60,2,0,1.85759089991916,1
2556,55,Larynx,Sham,Tone,Clear,61,4,1,1.5799775000196001,1
2557,55,Larynx,Sham,Tone,Clear,62,3,1,0.6203653999837121,1
2558,55,Larynx,Sham,Tone,Clear,63,2,0,0.983969600056298,1
2559,55,Larynx,Sham,Tone,Clear,64,3,1,1.76361569995061,1
2560,55,Larynx,Sham,Tone,Clear,65,3,1,0.7866274999687449,1
2561,55,Larynx,Sham,Tone,Clear,66,5,1,0.684473900008015,1
2562,55,Larynx,Sham,Tone,Clear,67,2,0,2.7728070999728502,1
2563,55,Larynx,Sham,Tone,Clear,68,2,0,1.01113899995107,1
2564,55,Larynx,Sham,Tone,Clear,69,4,1,0.584203100064769,1
2565,55,Larynx,Sham,Tone,Clear,70,5,1,0.507637600065209,1
2566,55,Larynx,Sham,Tone,Clear,71,1,0,0.595189100014977,1
2567,55,Larynx,Sham,Tone,Clear,72,5,1,0.706576099968515,1
2568,55,Larynx,Sham,Tone,Clear,73,1,0,0.570827799965627,1
2569,55,Larynx,Sham,Tone,Clear,74,4,1,0.8997565000317991,1
2570,55,Larynx,Sham,Tone,Clear,75,3,1,0.8135910000419241,1
2571,55,Larynx,Sham,Tone,Clear,76,2,0,2.0464467999991,1
2572,55,Larynx,Sham,Tone,Clear,77,3,1,0.8287455000681802,1
2573,55,Larynx,Sham,Tone,Clear,78,5,1,0.691364800091833,1
2574,55,Larynx,Sham,Tone,Clear,79,4,1,0.56891499995254,1
2575,55,Larynx,Sham,Tone,Clear,80,5,1,1.1224273000843799,1
2576,55,Larynx,Sham,Tone,Clear,81,2,0,1.4627089999848997,1
2577,55,Larynx,Sham,Tone,Clear,82,3,0,2.78116520005278,1
2578,55,Larynx,Sham,Tone,Clear,83,4,1,1.13467719999608,1
2579,55,Larynx,Sham,Tone,Clear,84,4,1,1.21983129996806,1
2580,55,Larynx,Sham,Tone,Clear,85,2,1,1.05313190002926,1
2581,55,Larynx,Sham,Tone,Clear,86,2,1,0.6470536999404429,1
2582,55,Larynx,Sham,Tone,Clear,87,3,1,0.703610799973831,1
2583,55,Larynx,Sham,Tone,Clear,88,5,1,0.622508800006472,1
2584,55,Larynx,Sham,Tone,Clear,89,1,0,0.539680799935013,1
2585,55,Larynx,Sham,Tone,Clear,90,4,1,0.630617000046186,1
2586,55,Larynx,Sham,Tone,Clear,91,3,1,0.682136000017636,1
2587,55,Larynx,Sham,Tone,Clear,92,1,0,0.5421453000744799,1
2588,55,Larynx,Sham,Tone,Clear,93,3,1,0.6444041000213471,1
2589,55,Larynx,Sham,Tone,Clear,94,3,1,0.61515500000678,1
2590,55,Larynx,Sham,Tone,Clear,95,1,0,0.54343910003081,1
2591,55,Larynx,Sham,Tone,Clear,96,2,0,1.04370010003913,1
2592,55,Larynx,Sham,Tone,Clear,97,5,1,0.759939100011252,1
2593,55,Larynx,Sham,Tone,Clear,98,5,1,0.5216468999860809,1
2594,55,Larynx,Sham,Tone,Clear,99,4,1,0.773355499957688,1
2595,55,Larynx,Sham,Tone,Clear,100,3,1,0.621327699976973,1
2596,55,Larynx,Sham,Tone,Clear,101,3,1,0.7802087999880309,1
2597,55,Larynx,Sham,Tone,Clear,102,5,1,0.616277400054969,1
2598,55,Larynx,Sham,Tone,Clear,103,4,1,0.665646699955687,1
2599,55,Larynx,Sham,Tone,Clear,104,3,1,0.6320730999577789,1
2600,55,Larynx,Sham,Tone,Clear,105,2,0,0.961536300019361,1
2601,55,Larynx,Sham,Tone,Clear,106,4,1,0.69562550005503,1
2602,55,Larynx,Sham,Tone,Clear,107,1,0,0.6597559000365439,1
2603,55,Larynx,Sham,Tone,Clear,108,1,0,0.6577935999957839,1
2604,55,Larynx,Sham,Tone,Clear,109,3,1,0.812088100006804,1
2605,55,Larynx,Sham,Tone,Clear,110,2,0,0.661941000027582,1
2606,55,Larynx,Sham,Tone,Clear,111,1,0,1.06566009996459,1
2607,55,Larynx,Sham,Tone,Clear,112,5,1,0.58662329998333,1
2608,55,Larynx,Sham,Tone,Clear,113,2,0,0.667902999906801,1
2609,55,Larynx,Sham,Tone,Clear,114,4,1,1.22181979997549,1
2610,55,Larynx,Sham,Tone,Clear,115,3,1,0.912234100047499,1
2611,55,Larynx,Sham,Tone,Clear,116,3,1,0.715524800005369,1
2612,55,Larynx,Sham,Tone,Clear,117,2,0,0.565462099970318,1
2613,55,Larynx,Sham,Tone,Clear,118,1,0,0.53840710001532,1
2614,55,Larynx,Sham,Tone,Clear,119,4,1,0.515047600027174,1
2615,55,Larynx,Sham,Tone,Clear,120,4,1,2.26357510010712,1
2616,55,Larynx,Sham,Tone,Clear,121,2,1,1.31948270008434,1
2617,55,Larynx,Sham,Tone,Clear,122,1,1,1.31763710000087,1
2618,55,Larynx,Sham,Tone,Clear,123,2,1,1.99861399992369,1
2619,55,Larynx,Sham,Tone,Clear,124,5,1,0.6650852999882769,1
2620,55,Larynx,Sham,Tone,Clear,125,4,1,0.641834700014442,1
2621,55,Larynx,Sham,Tone,Clear,126,2,0,0.598786500049755,1
2622,55,Larynx,Sham,Tone,Clear,127,3,1,0.7919549000216651,1
2623,55,Larynx,Sham,Tone,Clear,128,4,1,0.578907700022683,1
2624,55,Larynx,Sham,Tone,Clear,129,3,1,1.05117230000906,1
2625,55,Larynx,Sham,Tone,Clear,130,1,0,0.6718397999648,1
2626,55,Larynx,Sham,Tone,Clear,131,2,0,0.8410573999863119,1
2627,55,Larynx,Sham,Tone,Clear,132,1,0,0.6992438999004661,1
2628,55,Larynx,Sham,Tone,Clear,133,3,1,0.982154399971478,1
2629,55,Larynx,Sham,Tone,Clear,134,4,1,0.6586527000181379,1
2630,55,Larynx,Sham,Tone,Clear,135,3,1,0.500173399923369,1
2631,55,Larynx,Sham,Tone,Clear,136,3,1,0.508990100002848,1
2632,55,Larynx,Sham,Tone,Clear,137,5,1,0.5394506000448019,1
2633,55,Larynx,Sham,Tone,Clear,138,2,0,0.615517399972305,1
2634,55,Larynx,Sham,Tone,Clear,139,3,1,0.62746990006417,1
2635,55,Larynx,Sham,Tone,Clear,140,2,1,0.6874280999181789,1
2636,55,Larynx,Sham,Tone,Clear,141,5,1,0.547228300012648,1
2637,55,Larynx,Sham,Tone,Clear,142,3,1,0.592347800033167,1
2638,55,Larynx,Sham,Tone,Clear,143,5,1,0.577419799985364,1
2639,55,Larynx,Sham,Tone,Clear,144,2,0,0.625134599977173,1
2640,55,Larynx,Sham,Tone,Clear,145,3,1,0.8758702999912199,1
2641,55,Larynx,Sham,Tone,Clear,146,1,0,0.601128799957223,1
2642,55,Larynx,Sham,Tone,Clear,147,3,1,0.6567192999646071,1
2643,55,Larynx,Sham,Tone,Clear,148,4,1,0.6903470000252131,1
2644,55,Larynx,Sham,Tone,Clear,149,4,1,0.938723100000061,1
2645,55,Larynx,Sham,Tone,Clear,150,2,0,0.594424999901094,1
2646,55,Larynx,Sham,Tone,Clear,151,5,1,0.871214700047858,1
2647,55,Larynx,Sham,Tone,Clear,152,3,1,0.628024899982847,1
2648,55,Larynx,Sham,Tone,Clear,153,3,1,0.678541900007986,1
2649,55,Larynx,Sham,Tone,Clear,154,5,1,0.699947100016288,1
2650,55,Larynx,Sham,Tone,Clear,155,4,1,1.39651340001728,1
2651,55,Larynx,Sham,Tone,Clear,156,1,0,0.5856899999780579,1
3120,104,Larynx,Left iTBS,Tone,Clear,1,4,1,0.9629578000167379,1
3121,104,Larynx,Left iTBS,Tone,Clear,2,4,1,0.7456952999345959,1
3122,104,Larynx,Left iTBS,Tone,Clear,3,2,0,0.7513914000010121,1
3123,104,Larynx,Left iTBS,Tone,Clear,4,3,1,0.791851100046188,1
3124,104,Larynx,Left iTBS,Tone,Clear,5,3,1,0.7493994999676942,1
3125,104,Larynx,Left iTBS,Tone,Clear,6,3,1,0.9724690999137241,1
3126,104,Larynx,Left iTBS,Tone,Clear,7,2,0,0.7216504000825809,1
3127,104,Larynx,Left iTBS,Tone,Clear,8,3,1,0.582878600107506,1
3128,104,Larynx,Left iTBS,Tone,Clear,9,5,1,0.533587099984288,1
3129,104,Larynx,Left iTBS,Tone,Clear,10,3,0,0.610074799973518,1
3130,104,Larynx,Left iTBS,Tone,Clear,11,2,0,0.637758999946527,1
3131,104,Larynx,Left iTBS,Tone,Clear,12,2,1,0.681258199969307,1
3132,104,Larynx,Left iTBS,Tone,Clear,13,5,1,0.6275897999294101,1
3133,104,Larynx,Left iTBS,Tone,Clear,14,4,1,0.645583500037901,1
3134,104,Larynx,Left iTBS,Tone,Clear,15,3,0,0.6069743999978531,1
3135,104,Larynx,Left iTBS,Tone,Clear,16,1,0,0.6523444999475029,1
3136,104,Larynx,Left iTBS,Tone,Clear,17,5,1,0.652984100044705,1
3137,104,Larynx,Left iTBS,Tone,Clear,18,3,1,0.601523800054565,1
3138,104,Larynx,Left iTBS,Tone,Clear,19,3,1,0.6943476999877021,1
3139,104,Larynx,Left iTBS,Tone,Clear,20,1,0,0.621595500037074,1
3140,104,Larynx,Left iTBS,Tone,Clear,21,5,1,0.608586400048807,1
3141,104,Larynx,Left iTBS,Tone,Clear,22,3,1,0.7395090999780219,1
3142,104,Larynx,Left iTBS,Tone,Clear,23,2,0,0.7070814999751751,1
3143,104,Larynx,Left iTBS,Tone,Clear,24,1,0,0.6632676000008361,1
3144,104,Larynx,Left iTBS,Tone,Clear,25,2,1,0.7748400999698791,1
3145,104,Larynx,Left iTBS,Tone,Clear,26,2,1,0.568677700008266,1
3146,104,Larynx,Left iTBS,Tone,Clear,27,4,1,0.5624539999989789,1
3147,104,Larynx,Left iTBS,Tone,Clear,28,1,0,0.605294800014235,1
3148,104,Larynx,Left iTBS,Tone,Clear,29,1,0,0.6657679000636559,1
3149,104,Larynx,Left iTBS,Tone,Clear,30,3,1,0.561575299943797,1
3150,104,Larynx,Left iTBS,Tone,Clear,31,4,1,0.528484599897638,1
3151,104,Larynx,Left iTBS,Tone,Clear,32,5,1,0.566013699979521,1
3152,104,Larynx,Left iTBS,Tone,Clear,33,4,1,0.555459700059146,1
3153,104,Larynx,Left iTBS,Tone,Clear,34,4,1,0.550315400003456,1
3154,104,Larynx,Left iTBS,Tone,Clear,35,3,1,0.594220600090921,1
3155,104,Larynx,Left iTBS,Tone,Clear,36,2,0,0.74386620009318,1
3156,104,Larynx,Left iTBS,Tone,Clear,37,1,0,0.540265799965709,1
3157,104,Larynx,Left iTBS,Tone,Clear,38,5,0,0.556359900045209,1
3158,104,Larynx,Left iTBS,Tone,Clear,39,4,1,0.7832817999878899,1
3159,104,Larynx,Left iTBS,Tone,Clear,40,3,1,0.924731599981897,1
3160,104,Larynx,Left iTBS,Tone,Clear,41,4,1,0.63832679996267,1
3161,104,Larynx,Left iTBS,Tone,Clear,42,3,1,0.5522505999542769,1
3162,104,Larynx,Left iTBS,Tone,Clear,43,1,0,0.6891915999585762,1
3163,104,Larynx,Left iTBS,Tone,Clear,44,2,0,0.61522270005662,1
3164,104,Larynx,Left iTBS,Tone,Clear,45,3,1,0.6739323999499901,1
3165,104,Larynx,Left iTBS,Tone,Clear,46,3,1,0.5529977000551299,1
3166,104,Larynx,Left iTBS,Tone,Clear,47,1,0,0.7136825999477879,1
3167,104,Larynx,Left iTBS,Tone,Clear,48,1,0,0.6571652999846259,1
3168,104,Larynx,Left iTBS,Tone,Clear,49,4,1,0.603099300060421,1
3169,104,Larynx,Left iTBS,Tone,Clear,50,4,1,0.5402801999589429,1
3170,104,Larynx,Left iTBS,Tone,Clear,51,3,1,0.526063599972986,1
3171,104,Larynx,Left iTBS,Tone,Clear,52,2,1,0.8399961999384691,1
3172,104,Larynx,Left iTBS,Tone,Clear,53,5,1,0.61788500007242,1
3173,104,Larynx,Left iTBS,Tone,Clear,54,2,0,0.6637599999085071,1
3174,104,Larynx,Left iTBS,Tone,Clear,55,2,0,0.6745892000617459,1
3175,104,Larynx,Left iTBS,Tone,Clear,56,5,1,0.5320834000594911,1
3176,104,Larynx,Left iTBS,Tone,Clear,57,1,0,0.750934200012125,1
3177,104,Larynx,Left iTBS,Tone,Clear,58,4,1,0.5740684999618679,1
3178,104,Larynx,Left iTBS,Tone,Clear,59,4,1,0.5336577999405561,1
3179,104,Larynx,Left iTBS,Tone,Clear,60,3,1,0.528821000014432,1
3180,104,Larynx,Left iTBS,Tone,Clear,61,5,1,0.478738100035116,1
3181,104,Larynx,Left iTBS,Tone,Clear,62,3,1,0.5677329000318421,1
3182,104,Larynx,Left iTBS,Tone,Clear,63,4,1,0.528145700111054,1
3183,104,Larynx,Left iTBS,Tone,Clear,64,3,1,0.584488500026055,1
3184,104,Larynx,Left iTBS,Tone,Clear,65,2,0,0.556985500035807,1
3185,104,Larynx,Left iTBS,Tone,Clear,66,1,0,0.528482900001109,1
3186,104,Larynx,Left iTBS,Tone,Clear,67,3,1,0.626902500051074,1
3187,104,Larynx,Left iTBS,Tone,Clear,68,4,1,0.548780899960548,1
3188,104,Larynx,Left iTBS,Tone,Clear,69,5,1,0.628160099964589,1
3189,104,Larynx,Left iTBS,Tone,Clear,70,2,0,0.6410086000105369,1
3190,104,Larynx,Left iTBS,Tone,Clear,71,5,1,0.508516700007021,1
3191,104,Larynx,Left iTBS,Tone,Clear,72,5,1,0.504950499976985,1
3192,104,Larynx,Left iTBS,Tone,Clear,73,4,1,0.6336256000213331,1
3193,104,Larynx,Left iTBS,Tone,Clear,74,1,0,0.505225599976256,1
3194,104,Larynx,Left iTBS,Tone,Clear,75,3,1,0.453834599931724,1
3195,104,Larynx,Left iTBS,Tone,Clear,76,2,0,0.641666100011207,1
3196,104,Larynx,Left iTBS,Tone,Clear,77,2,1,0.589872699929401,1
3197,104,Larynx,Left iTBS,Tone,Clear,78,3,1,0.583960399962962,1
3198,104,Larynx,Left iTBS,Tone,Clear,79,5,0,0.57729929999914,1
3199,104,Larynx,Left iTBS,Tone,Clear,80,3,1,0.7491868999786679,1
3200,104,Larynx,Left iTBS,Tone,Clear,81,3,1,0.7483040000079201,1
3201,104,Larynx,Left iTBS,Tone,Clear,82,1,0,0.585893900017254,1
3202,104,Larynx,Left iTBS,Tone,Clear,83,1,0,0.6758398999227211,1
3203,104,Larynx,Left iTBS,Tone,Clear,84,4,1,0.6154769000131639,1
3204,104,Larynx,Left iTBS,Tone,Clear,85,3,1,0.683728800038807,1
3205,104,Larynx,Left iTBS,Tone,Clear,86,3,1,0.608958299970254,1
3206,104,Larynx,Left iTBS,Tone,Clear,87,2,0,0.6479375999188051,1
3207,104,Larynx,Left iTBS,Tone,Clear,88,3,1,0.49989520001690796,1
3208,104,Larynx,Left iTBS,Tone,Clear,89,5,1,0.560941500007175,1
3209,104,Larynx,Left iTBS,Tone,Clear,90,5,1,0.590929999947548,1
3210,104,Larynx,Left iTBS,Tone,Clear,91,1,0,0.630737600033171,1
3211,104,Larynx,Left iTBS,Tone,Clear,92,5,1,0.4781053999904539,1
3212,104,Larynx,Left iTBS,Tone,Clear,93,2,1,0.495221600052901,1
3213,104,Larynx,Left iTBS,Tone,Clear,94,3,1,0.636700200033374,1
3214,104,Larynx,Left iTBS,Tone,Clear,95,2,1,0.6651733999606221,1
3215,104,Larynx,Left iTBS,Tone,Clear,96,4,1,0.657818599953316,1
3216,104,Larynx,Left iTBS,Tone,Clear,97,4,1,0.488925699959509,1
3217,104,Larynx,Left iTBS,Tone,Clear,98,5,1,0.532324200030416,1
3218,104,Larynx,Left iTBS,Tone,Clear,99,2,0,0.559166399994865,1
3219,104,Larynx,Left iTBS,Tone,Clear,100,1,0,0.485306499991566,1
3220,104,Larynx,Left iTBS,Tone,Clear,101,4,1,0.569929399993271,1
3221,104,Larynx,Left iTBS,Tone,Clear,102,2,0,0.8440098999999459,1
3222,104,Larynx,Left iTBS,Tone,Clear,103,4,1,0.584212700021453,1
3223,104,Larynx,Left iTBS,Tone,Clear,104,1,0,0.571188000030816,1
3224,104,Larynx,Left iTBS,Tone,Clear,105,2,0,0.6042030000826341,1
3225,104,Larynx,Left iTBS,Tone,Clear,106,4,1,0.569769499939866,1
3226,104,Larynx,Left iTBS,Tone,Clear,107,2,1,0.8343894999707121,1
3227,104,Larynx,Left iTBS,Tone,Clear,108,3,1,0.641829999978654,1
3228,104,Larynx,Left iTBS,Tone,Clear,109,3,1,0.776388700003736,1
3229,104,Larynx,Left iTBS,Tone,Clear,110,1,0,0.60729309997987,1
3230,104,Larynx,Left iTBS,Tone,Clear,111,4,1,0.5061069999355821,1
3231,104,Larynx,Left iTBS,Tone,Clear,112,3,1,0.642500999965705,1
3232,104,Larynx,Left iTBS,Tone,Clear,113,2,1,0.701450799941085,1
3233,104,Larynx,Left iTBS,Tone,Clear,114,3,0,0.54634400003124,1
3234,104,Larynx,Left iTBS,Tone,Clear,115,4,1,0.822682400001213,1
3235,104,Larynx,Left iTBS,Tone,Clear,116,3,1,0.6075898999115451,1
3236,104,Larynx,Left iTBS,Tone,Clear,117,5,1,0.513543399982154,1
3237,104,Larynx,Left iTBS,Tone,Clear,118,2,0,0.615084700053558,1
3238,104,Larynx,Left iTBS,Tone,Clear,119,3,1,0.6089254000689829,1
3239,104,Larynx,Left iTBS,Tone,Clear,120,4,1,0.7209110999247059,1
3240,104,Larynx,Left iTBS,Tone,Clear,121,3,0,0.604651700006798,1
3241,104,Larynx,Left iTBS,Tone,Clear,122,3,1,0.650693600066006,1
3242,104,Larynx,Left iTBS,Tone,Clear,123,4,1,0.508316299994476,1
3243,104,Larynx,Left iTBS,Tone,Clear,124,2,0,0.5731287000235171,1
3244,104,Larynx,Left iTBS,Tone,Clear,125,5,1,0.520830000052229,1
3245,104,Larynx,Left iTBS,Tone,Clear,126,1,0,0.549131399951875,1
3246,104,Larynx,Left iTBS,Tone,Clear,127,5,1,0.566283900057897,1
3247,104,Larynx,Left iTBS,Tone,Clear,128,1,0,0.515401200042106,1
3248,104,Larynx,Left iTBS,Tone,Clear,129,2,0,0.650422799983062,1
3249,104,Larynx,Left iTBS,Tone,Clear,130,1,0,0.60537459992338,1
3250,104,Larynx,Left iTBS,Tone,Clear,131,2,0,0.658657200052403,1
3251,104,Larynx,Left iTBS,Tone,Clear,132,1,1,0.6564901999663559,1
3252,104,Larynx,Left iTBS,Tone,Clear,133,3,1,0.5311182999284939,1
3253,104,Larynx,Left iTBS,Tone,Clear,134,3,1,0.632491199998185,1
3254,104,Larynx,Left iTBS,Tone,Clear,135,3,1,0.65573180001229,1
3255,104,Larynx,Left iTBS,Tone,Clear,136,5,1,0.518491200054996,1
3256,104,Larynx,Left iTBS,Tone,Clear,137,4,1,0.6022109000477939,1
3257,104,Larynx,Left iTBS,Tone,Clear,138,4,1,0.578293400001712,1
3258,104,Larynx,Left iTBS,Tone,Clear,139,4,1,0.507380399969406,1
3259,104,Larynx,Left iTBS,Tone,Clear,140,3,0,0.689461799920537,1
3260,104,Larynx,Left iTBS,Tone,Clear,141,3,1,0.5684438999742271,1
3261,104,Larynx,Left iTBS,Tone,Clear,142,2,0,0.7605705000460151,1
3262,104,Larynx,Left iTBS,Tone,Clear,143,4,1,0.5743194000096989,1
3263,104,Larynx,Left iTBS,Tone,Clear,144,5,1,0.48605989990755893,1
3264,104,Larynx,Left iTBS,Tone,Clear,145,1,0,0.604897099896334,1
3265,104,Larynx,Left iTBS,Tone,Clear,146,2,0,0.798874499974772,1
3266,104,Larynx,Left iTBS,Tone,Clear,147,3,1,0.7362423000158741,1
3267,104,Larynx,Left iTBS,Tone,Clear,148,3,1,0.6249372999882329,1
3268,104,Larynx,Left iTBS,Tone,Clear,149,3,0,0.677256399998441,1
3269,104,Larynx,Left iTBS,Tone,Clear,150,2,0,0.648668500012718,1
3270,104,Larynx,Left iTBS,Tone,Clear,151,4,0,0.560208400012925,1
3271,104,Larynx,Left iTBS,Tone,Clear,152,5,1,0.533988400013186,1
3272,104,Larynx,Left iTBS,Tone,Clear,153,5,0,0.5789890000596639,1
3273,104,Larynx,Left iTBS,Tone,Clear,154,4,1,0.7779172000009571,1
3274,104,Larynx,Left iTBS,Tone,Clear,155,2,0,0.58317050000187,1
3275,104,Larynx,Left iTBS,Tone,Clear,156,1,0,0.648856200044975,1
5616,104,Larynx,Sham,Tone,Clear,1,3,0,0.7461044000228871,1
5617,104,Larynx,Sham,Tone,Clear,2,3,0,0.6262017999542879,1
5618,104,Larynx,Sham,Tone,Clear,3,5,1,0.651367199956439,1
5619,104,Larynx,Sham,Tone,Clear,4,1,0,0.547613399976399,1
5620,104,Larynx,Sham,Tone,Clear,5,2,0,0.59058310004184,1
5621,104,Larynx,Sham,Tone,Clear,6,3,1,0.5602333999704571,1
5622,104,Larynx,Sham,Tone,Clear,7,2,0,0.789718999993056,1
5623,104,Larynx,Sham,Tone,Clear,8,2,0,0.6330386999761689,1
5624,104,Larynx,Sham,Tone,Clear,9,5,1,0.49529960000654705,1
5625,104,Larynx,Sham,Tone,Clear,10,4,1,0.536458999966271,1
5626,104,Larynx,Sham,Tone,Clear,11,5,1,0.4541460999753329,1
5627,104,Larynx,Sham,Tone,Clear,12,1,0,0.559067199996207,1
5628,104,Larynx,Sham,Tone,Clear,13,1,0,0.6148508000187579,1
5629,104,Larynx,Sham,Tone,Clear,14,4,1,0.537425999995321,1
5630,104,Larynx,Sham,Tone,Clear,15,5,1,0.47943659999873495,1
5631,104,Larynx,Sham,Tone,Clear,16,2,0,0.575246400025208,1
5632,104,Larynx,Sham,Tone,Clear,17,4,1,0.6398255999665711,1
5633,104,Larynx,Sham,Tone,Clear,18,4,1,0.5631702999817211,1
5634,104,Larynx,Sham,Tone,Clear,19,3,0,0.558484300039709,1
5635,104,Larynx,Sham,Tone,Clear,20,3,1,0.530058900010772,1
5636,104,Larynx,Sham,Tone,Clear,21,2,0,0.571846699982416,1
5637,104,Larynx,Sham,Tone,Clear,22,1,0,0.592346800025553,1
5638,104,Larynx,Sham,Tone,Clear,23,4,1,0.47514009999577,1
5639,104,Larynx,Sham,Tone,Clear,24,3,1,0.7200135000166479,1
5640,104,Larynx,Sham,Tone,Clear,25,3,1,0.5552484000218101,1
5641,104,Larynx,Sham,Tone,Clear,26,3,1,0.4832515000016429,1
5642,104,Larynx,Sham,Tone,Clear,27,1,0,0.475936600007117,1
5643,104,Larynx,Sham,Tone,Clear,28,5,1,0.544058799976483,1
5644,104,Larynx,Sham,Tone,Clear,29,2,0,0.5618730999995021,1
5645,104,Larynx,Sham,Tone,Clear,30,4,1,0.44343430001754297,1
5646,104,Larynx,Sham,Tone,Clear,31,2,0,0.6429700999869971,1
5647,104,Larynx,Sham,Tone,Clear,32,3,1,0.484759399958421,1
5648,104,Larynx,Sham,Tone,Clear,33,3,1,0.584764699975494,1
5649,104,Larynx,Sham,Tone,Clear,34,2,0,0.6561645999900071,1
5650,104,Larynx,Sham,Tone,Clear,35,4,1,0.62493709998671,1
5651,104,Larynx,Sham,Tone,Clear,36,3,0,0.657256399979815,1
5652,104,Larynx,Sham,Tone,Clear,37,5,1,1.01787159999367,1
5653,104,Larynx,Sham,Tone,Clear,38,1,0,0.556470100011211,1
5654,104,Larynx,Sham,Tone,Clear,39,4,1,0.548961499996949,1
5655,104,Larynx,Sham,Tone,Clear,40,5,1,0.548447699984536,1
5656,104,Larynx,Sham,Tone,Clear,41,3,1,0.78801190003287,1
5657,104,Larynx,Sham,Tone,Clear,42,3,1,0.973154200008139,1
5658,104,Larynx,Sham,Tone,Clear,43,4,1,0.588603200041689,1
5659,104,Larynx,Sham,Tone,Clear,44,3,0,0.541800600010902,1
5660,104,Larynx,Sham,Tone,Clear,45,4,1,0.6797749999677759,1
5661,104,Larynx,Sham,Tone,Clear,46,1,0,0.514984599954914,1
5662,104,Larynx,Sham,Tone,Clear,47,3,1,0.583982200012542,1
5663,104,Larynx,Sham,Tone,Clear,48,2,0,0.625317500031088,1
5664,104,Larynx,Sham,Tone,Clear,49,1,0,0.5962136000161989,1
5665,104,Larynx,Sham,Tone,Clear,50,4,1,0.45473489997675604,1
5666,104,Larynx,Sham,Tone,Clear,51,3,1,0.479067100037355,1
5667,104,Larynx,Sham,Tone,Clear,52,3,1,0.7344797999830921,1
5668,104,Larynx,Sham,Tone,Clear,53,1,0,0.570301199972164,1
5669,104,Larynx,Sham,Tone,Clear,54,5,1,0.49656229995889595,1
5670,104,Larynx,Sham,Tone,Clear,55,2,0,0.688634899968747,1
5671,104,Larynx,Sham,Tone,Clear,56,1,1,0.5614055999903941,1
5672,104,Larynx,Sham,Tone,Clear,57,4,1,0.510980999970343,1
5673,104,Larynx,Sham,Tone,Clear,58,4,1,0.465712099976372,1
5674,104,Larynx,Sham,Tone,Clear,59,2,0,0.5395833000075071,1
5675,104,Larynx,Sham,Tone,Clear,60,2,1,0.511191600002348,1
5676,104,Larynx,Sham,Tone,Clear,61,4,1,0.515669199987315,1
5677,104,Larynx,Sham,Tone,Clear,62,3,0,0.601155399985146,1
5678,104,Larynx,Sham,Tone,Clear,63,2,0,0.812664200027939,1
5679,104,Larynx,Sham,Tone,Clear,64,3,1,0.5839713999885129,1
5680,104,Larynx,Sham,Tone,Clear,65,3,0,0.546862000017427,1
5681,104,Larynx,Sham,Tone,Clear,66,5,0,0.536499099980574,1
5682,104,Larynx,Sham,Tone,Clear,67,2,0,0.719454400008544,1
5683,104,Larynx,Sham,Tone,Clear,68,2,0,0.6457144000451079,1
5684,104,Larynx,Sham,Tone,Clear,69,4,1,0.502312500029802,1
5685,104,Larynx,Sham,Tone,Clear,70,5,1,0.474092499993276,1
5686,104,Larynx,Sham,Tone,Clear,71,1,1,0.447359699988738,1
5687,104,Larynx,Sham,Tone,Clear,72,5,1,0.6298646000213921,1
5688,104,Larynx,Sham,Tone,Clear,73,1,0,0.556415400002152,1
5689,104,Larynx,Sham,Tone,Clear,74,4,1,0.44123510003555605,1
5690,104,Larynx,Sham,Tone,Clear,75,3,0,0.5703913000179449,1
5691,104,Larynx,Sham,Tone,Clear,76,2,0,0.6535777999670239,1
5692,104,Larynx,Sham,Tone,Clear,77,3,1,0.7819288999889978,1
5693,104,Larynx,Sham,Tone,Clear,78,5,1,0.46963970002252603,1
5694,104,Larynx,Sham,Tone,Clear,79,4,0,0.601298499968834,1
5695,104,Larynx,Sham,Tone,Clear,80,5,1,0.547034999995958,1
5696,104,Larynx,Sham,Tone,Clear,81,2,0,0.6730512999929489,1
5697,104,Larynx,Sham,Tone,Clear,82,3,1,0.667646199988667,1
5698,104,Larynx,Sham,Tone,Clear,83,4,1,0.520667300035711,1
5699,104,Larynx,Sham,Tone,Clear,84,4,1,0.5878937999950721,1
5700,104,Larynx,Sham,Tone,Clear,85,2,1,0.7150673000141979,1
5701,104,Larynx,Sham,Tone,Clear,86,2,0,0.8230509000131859,1
5702,104,Larynx,Sham,Tone,Clear,87,3,1,0.501437800005078,1
5703,104,Larynx,Sham,Tone,Clear,88,5,1,0.6174371000379321,1
5704,104,Larynx,Sham,Tone,Clear,89,1,0,0.55154290003702,1
5705,104,Larynx,Sham,Tone,Clear,90,4,1,0.49813409999478603,1
5706,104,Larynx,Sham,Tone,Clear,91,3,0,0.492316199990455,1
5707,104,Larynx,Sham,Tone,Clear,92,1,0,0.666952600004151,1
5708,104,Larynx,Sham,Tone,Clear,93,3,1,0.559924400004093,1
5709,104,Larynx,Sham,Tone,Clear,94,3,1,0.483912600029726,1
5710,104,Larynx,Sham,Tone,Clear,95,1,0,0.562771099968813,1
5711,104,Larynx,Sham,Tone,Clear,96,2,0,0.5801358000026079,1
5712,104,Larynx,Sham,Tone,Clear,97,5,1,0.47189639997668603,1
5713,104,Larynx,Sham,Tone,Clear,98,5,1,0.46303840004839003,1
5714,104,Larynx,Sham,Tone,Clear,99,4,1,0.694006100005936,1
5715,104,Larynx,Sham,Tone,Clear,100,3,1,0.46119729999918496,1
5716,104,Larynx,Sham,Tone,Clear,101,3,1,0.6248599999817089,1
5717,104,Larynx,Sham,Tone,Clear,102,5,1,0.5578153000096789,1
5718,104,Larynx,Sham,Tone,Clear,103,4,1,0.538183700002264,1
5719,104,Larynx,Sham,Tone,Clear,104,3,1,0.43988760001957394,1
5720,104,Larynx,Sham,Tone,Clear,105,2,0,0.649454200000037,1
5721,104,Larynx,Sham,Tone,Clear,106,4,1,0.5526833999902011,1
5722,104,Larynx,Sham,Tone,Clear,107,1,0,0.6245045000105159,1
5723,104,Larynx,Sham,Tone,Clear,108,1,0,0.576954899996053,1
5724,104,Larynx,Sham,Tone,Clear,109,3,0,0.5719328999985009,1
5725,104,Larynx,Sham,Tone,Clear,110,2,1,0.5266997000435371,1
5726,104,Larynx,Sham,Tone,Clear,111,1,0,0.7394724000478159,1
5727,104,Larynx,Sham,Tone,Clear,112,5,1,0.417501399992034,1
5728,104,Larynx,Sham,Tone,Clear,113,2,1,0.576731599983759,1
5729,104,Larynx,Sham,Tone,Clear,114,4,1,0.658923399983905,1
5730,104,Larynx,Sham,Tone,Clear,115,3,1,0.534329499991145,1
5731,104,Larynx,Sham,Tone,Clear,116,3,0,0.623810299963225,1
5732,104,Larynx,Sham,Tone,Clear,117,2,0,0.713078000000678,1
5733,104,Larynx,Sham,Tone,Clear,118,1,0,0.702737600018736,1
5734,104,Larynx,Sham,Tone,Clear,119,4,1,0.45378499996149896,1
5735,104,Larynx,Sham,Tone,Clear,120,4,1,0.532743200019468,1
5736,104,Larynx,Sham,Tone,Clear,121,2,0,0.601168600027449,1
5737,104,Larynx,Sham,Tone,Clear,122,1,0,0.594152599980589,1
5738,104,Larynx,Sham,Tone,Clear,123,2,1,0.561358399980236,1
5739,104,Larynx,Sham,Tone,Clear,124,5,1,0.541015599970706,1
5740,104,Larynx,Sham,Tone,Clear,125,4,1,0.525034899997991,1
5741,104,Larynx,Sham,Tone,Clear,126,2,1,0.6709714999888089,1
5742,104,Larynx,Sham,Tone,Clear,127,3,1,0.6928526999545279,1
5743,104,Larynx,Sham,Tone,Clear,128,4,0,0.5935836000135171,1
5744,104,Larynx,Sham,Tone,Clear,129,3,0,0.6591991999885071,1
5745,104,Larynx,Sham,Tone,Clear,130,1,0,0.7273569999961179,1
5746,104,Larynx,Sham,Tone,Clear,131,2,1,0.512863499985542,1
5747,104,Larynx,Sham,Tone,Clear,132,1,0,0.8545184999820781,1
5748,104,Larynx,Sham,Tone,Clear,133,3,0,0.7514537000097329,1
5749,104,Larynx,Sham,Tone,Clear,134,4,1,0.546822400006931,1
5750,104,Larynx,Sham,Tone,Clear,135,3,1,0.7488018000149169,1
5751,104,Larynx,Sham,Tone,Clear,136,3,1,0.593604499998037,1
5752,104,Larynx,Sham,Tone,Clear,137,5,1,0.69338880002033,1
5753,104,Larynx,Sham,Tone,Clear,138,2,0,0.7695414000190791,1
5754,104,Larynx,Sham,Tone,Clear,139,3,1,0.7201938999933191,1
5755,104,Larynx,Sham,Tone,Clear,140,2,1,0.543994400009979,1
5756,104,Larynx,Sham,Tone,Clear,141,5,1,0.533274799992796,1
5757,104,Larynx,Sham,Tone,Clear,142,3,0,0.653478499967605,1
5758,104,Larynx,Sham,Tone,Clear,143,5,1,0.555612299998757,1
5759,104,Larynx,Sham,Tone,Clear,144,2,0,0.6847901999717579,1
5760,104,Larynx,Sham,Tone,Clear,145,3,1,0.768855899979826,1
5761,104,Larynx,Sham,Tone,Clear,146,1,0,0.614138000004459,1
5762,104,Larynx,Sham,Tone,Clear,147,3,1,0.585270699986722,1
5763,104,Larynx,Sham,Tone,Clear,148,4,1,0.503485900000669,1
5764,104,Larynx,Sham,Tone,Clear,149,4,1,0.505519700003788,1
5765,104,Larynx,Sham,Tone,Clear,150,2,0,0.541936099994928,1
5766,104,Larynx,Sham,Tone,Clear,151,5,1,0.5371672000037511,1
5767,104,Larynx,Sham,Tone,Clear,152,3,0,0.546386400004849,1
5768,104,Larynx,Sham,Tone,Clear,153,3,0,0.7437565000145699,1
5769,104,Larynx,Sham,Tone,Clear,154,5,1,0.489477899973281,1
5770,104,Larynx,Sham,Tone,Clear,155,4,1,0.58005539997248,1
5771,104,Larynx,Sham,Tone,Clear,156,1,0,0.619593499985058,1
6240,123,Larynx,Left iTBS,Tone,Clear,1,3,0,0.6182751000014829,1
6241,123,Larynx,Left iTBS,Tone,Clear,2,1,1,0.46841760000097604,1
6242,123,Larynx,Left iTBS,Tone,Clear,3,4,1,0.490436000007321,1
6243,123,Larynx,Left iTBS,Tone,Clear,4,5,1,0.385827599995537,1
6244,123,Larynx,Left iTBS,Tone,Clear,5,4,1,0.44945949999964796,1
6245,123,Larynx,Left iTBS,Tone,Clear,6,2,0,0.537986600000295,1
6246,123,Larynx,Left iTBS,Tone,Clear,7,2,1,0.6265100000018721,1
6247,123,Larynx,Left iTBS,Tone,Clear,8,3,1,0.39291559999401204,1
6248,123,Larynx,Left iTBS,Tone,Clear,9,3,1,0.423011600010796,1
6249,123,Larynx,Left iTBS,Tone,Clear,10,5,1,0.45739749999484003,1
6250,123,Larynx,Left iTBS,Tone,Clear,11,3,1,0.555156400005217,1
6251,123,Larynx,Left iTBS,Tone,Clear,12,2,0,0.591544099996099,1
6252,123,Larynx,Left iTBS,Tone,Clear,13,3,1,0.3846879000047921,1
6253,123,Larynx,Left iTBS,Tone,Clear,14,2,0,0.6540469000028679,1
6254,123,Larynx,Left iTBS,Tone,Clear,15,4,1,0.46598699998867205,1
6255,123,Larynx,Left iTBS,Tone,Clear,16,2,1,1.4220048999995902,1
6256,123,Larynx,Left iTBS,Tone,Clear,17,5,1,0.41029010000056604,1
6257,123,Larynx,Left iTBS,Tone,Clear,18,3,1,0.42082719999598295,1
6258,123,Larynx,Left iTBS,Tone,Clear,19,1,0,0.655870000002324,1
6259,123,Larynx,Left iTBS,Tone,Clear,20,3,1,0.389039499990758,1
6260,123,Larynx,Left iTBS,Tone,Clear,21,3,1,0.416053199995076,1
6261,123,Larynx,Left iTBS,Tone,Clear,22,4,1,0.370654600003036,1
6262,123,Larynx,Left iTBS,Tone,Clear,23,1,0,0.73179920000257,1
6263,123,Larynx,Left iTBS,Tone,Clear,24,1,0,0.610156399998232,1
6264,123,Larynx,Left iTBS,Tone,Clear,25,1,0,0.45581629998923706,1
6265,123,Larynx,Left iTBS,Tone,Clear,26,1,0,0.560502299995278,1
6266,123,Larynx,Left iTBS,Tone,Clear,27,5,1,0.43627089999790797,1
6267,123,Larynx,Left iTBS,Tone,Clear,28,3,1,0.346711700010928,1
6268,123,Larynx,Left iTBS,Tone,Clear,29,4,1,0.379608900009771,1
6269,123,Larynx,Left iTBS,Tone,Clear,30,3,1,0.40836430000490503,1
6270,123,Larynx,Left iTBS,Tone,Clear,31,5,1,0.44006100000115095,1
6271,123,Larynx,Left iTBS,Tone,Clear,32,2,1,0.717309400002705,1
6272,123,Larynx,Left iTBS,Tone,Clear,33,4,1,0.482752399999299,1
6273,123,Larynx,Left iTBS,Tone,Clear,34,4,1,0.5022659999958711,1
6274,123,Larynx,Left iTBS,Tone,Clear,35,5,1,0.47010289999889204,1
6275,123,Larynx,Left iTBS,Tone,Clear,36,2,0,0.88110250000318,1
6276,123,Larynx,Left iTBS,Tone,Clear,37,4,1,0.429345900003682,1
6277,123,Larynx,Left iTBS,Tone,Clear,38,3,1,0.419462499994552,1
6278,123,Larynx,Left iTBS,Tone,Clear,39,2,1,0.9216615999903299,1
6279,123,Larynx,Left iTBS,Tone,Clear,40,3,1,0.43142649999936106,1
6280,123,Larynx,Left iTBS,Tone,Clear,41,2,1,0.376601700001629,1
6281,123,Larynx,Left iTBS,Tone,Clear,42,4,1,0.367386900004931,1
6282,123,Larynx,Left iTBS,Tone,Clear,43,5,1,0.382543900006567,1
6283,123,Larynx,Left iTBS,Tone,Clear,44,4,1,0.36013010000169704,1
6284,123,Larynx,Left iTBS,Tone,Clear,45,3,1,0.523194299996248,1
6285,123,Larynx,Left iTBS,Tone,Clear,46,1,1,0.377136800001608,1
6286,123,Larynx,Left iTBS,Tone,Clear,47,4,1,0.544808899998316,1
6287,123,Larynx,Left iTBS,Tone,Clear,48,3,1,0.538650800008327,1
6288,123,Larynx,Left iTBS,Tone,Clear,49,3,1,0.43495870000333503,1
6289,123,Larynx,Left iTBS,Tone,Clear,50,5,1,0.6975358999916351,1
6290,123,Larynx,Left iTBS,Tone,Clear,51,2,1,0.7153332000016229,1
6291,123,Larynx,Left iTBS,Tone,Clear,52,5,1,0.464343500003451,1
6292,123,Larynx,Left iTBS,Tone,Clear,53,4,1,0.569257099996321,1
6293,123,Larynx,Left iTBS,Tone,Clear,54,1,0,0.483633800002281,1
6294,123,Larynx,Left iTBS,Tone,Clear,55,3,1,0.8555882000073319,1
6295,123,Larynx,Left iTBS,Tone,Clear,56,5,1,0.535964299997431,1
6296,123,Larynx,Left iTBS,Tone,Clear,57,5,1,0.576873300000443,1
6297,123,Larynx,Left iTBS,Tone,Clear,58,1,0,0.7829152000049359,1
6298,123,Larynx,Left iTBS,Tone,Clear,59,3,1,0.43261279999569496,1
6299,123,Larynx,Left iTBS,Tone,Clear,60,1,0,0.63266719999956,1
6300,123,Larynx,Left iTBS,Tone,Clear,61,2,0,0.8288958000048299,1
6301,123,Larynx,Left iTBS,Tone,Clear,62,2,1,0.8101126999972621,1
6302,123,Larynx,Left iTBS,Tone,Clear,63,4,1,0.431589600004372,1
6303,123,Larynx,Left iTBS,Tone,Clear,64,4,1,0.460908399996697,1
6304,123,Larynx,Left iTBS,Tone,Clear,65,3,1,0.47144649999972904,1
6305,123,Larynx,Left iTBS,Tone,Clear,66,2,1,0.592357799992897,1
6306,123,Larynx,Left iTBS,Tone,Clear,67,3,1,0.4619687000085829,1
6307,123,Larynx,Left iTBS,Tone,Clear,68,5,1,0.5367423999996389,1
6308,123,Larynx,Left iTBS,Tone,Clear,69,2,1,0.8257955000008219,1
6309,123,Larynx,Left iTBS,Tone,Clear,70,4,1,0.48657110000203796,1
6310,123,Larynx,Left iTBS,Tone,Clear,71,1,0,0.808477400001721,1
6311,123,Larynx,Left iTBS,Tone,Clear,72,3,1,0.411450100000366,1
6312,123,Larynx,Left iTBS,Tone,Clear,73,4,1,0.3850597999989989,1
6313,123,Larynx,Left iTBS,Tone,Clear,74,2,1,0.595251400009147,1
6314,123,Larynx,Left iTBS,Tone,Clear,75,2,1,0.605724900000496,1
6315,123,Larynx,Left iTBS,Tone,Clear,76,3,1,0.550612199993338,1
6316,123,Larynx,Left iTBS,Tone,Clear,77,1,0,0.9245379000058159,1
6317,123,Larynx,Left iTBS,Tone,Clear,78,3,1,0.41331279999576503,1
6318,123,Larynx,Left iTBS,Tone,Clear,79,1,0,0.741659599996638,1
6319,123,Larynx,Left iTBS,Tone,Clear,80,1,0,0.7362748000014109,1
6320,123,Larynx,Left iTBS,Tone,Clear,81,3,1,0.498787899996387,1
6321,123,Larynx,Left iTBS,Tone,Clear,82,3,1,0.424376499999198,1
6322,123,Larynx,Left iTBS,Tone,Clear,83,4,1,0.4312711999955349,1
6323,123,Larynx,Left iTBS,Tone,Clear,84,4,1,0.38689999999769503,1
6324,123,Larynx,Left iTBS,Tone,Clear,85,3,1,0.4186934000026671,1
6325,123,Larynx,Left iTBS,Tone,Clear,86,1,0,0.7627848999982231,1
6326,123,Larynx,Left iTBS,Tone,Clear,87,5,1,0.38996099999349104,1
6327,123,Larynx,Left iTBS,Tone,Clear,88,4,1,0.45367020000412606,1
6328,123,Larynx,Left iTBS,Tone,Clear,89,4,1,0.418834600000991,1
6329,123,Larynx,Left iTBS,Tone,Clear,90,5,1,0.377724800011492,1
6330,123,Larynx,Left iTBS,Tone,Clear,91,3,1,0.592112800004543,1
6331,123,Larynx,Left iTBS,Tone,Clear,92,4,1,0.473408799996832,1
6332,123,Larynx,Left iTBS,Tone,Clear,93,4,1,0.46744419999595294,1
6333,123,Larynx,Left iTBS,Tone,Clear,94,4,1,0.4666785000008529,1
6334,123,Larynx,Left iTBS,Tone,Clear,95,1,0,0.6162199999962471,1
6335,123,Larynx,Left iTBS,Tone,Clear,96,5,1,0.41208930000721,1
6336,123,Larynx,Left iTBS,Tone,Clear,97,3,1,0.397166300012032,1
6337,123,Larynx,Left iTBS,Tone,Clear,98,2,1,0.4626310000021479,1
6338,123,Larynx,Left iTBS,Tone,Clear,99,1,0,0.606138400005875,1
6339,123,Larynx,Left iTBS,Tone,Clear,100,3,1,0.39690920000430197,1
6340,123,Larynx,Left iTBS,Tone,Clear,101,1,0,0.91294619999826,1
6341,123,Larynx,Left iTBS,Tone,Clear,102,2,1,0.8817616000014821,1
6342,123,Larynx,Left iTBS,Tone,Clear,103,5,1,0.472593200000119,1
6343,123,Larynx,Left iTBS,Tone,Clear,104,3,1,0.623431200001505,1
6344,123,Larynx,Left iTBS,Tone,Clear,105,5,1,0.385884600007557,1
6345,123,Larynx,Left iTBS,Tone,Clear,106,3,1,0.5810177999956071,1
6346,123,Larynx,Left iTBS,Tone,Clear,107,3,1,0.38276410000980804,1
6347,123,Larynx,Left iTBS,Tone,Clear,108,3,1,0.424506100011058,1
6348,123,Larynx,Left iTBS,Tone,Clear,109,4,1,0.36977120001392894,1
6349,123,Larynx,Left iTBS,Tone,Clear,110,2,1,0.39254830000572793,1
6350,123,Larynx,Left iTBS,Tone,Clear,111,2,1,0.48181920000934003,1
6351,123,Larynx,Left iTBS,Tone,Clear,112,5,1,0.420125400007237,1
6352,123,Larynx,Left iTBS,Tone,Clear,113,2,1,0.39467130000412004,1
6353,123,Larynx,Left iTBS,Tone,Clear,114,2,1,0.507269699999597,1
6354,123,Larynx,Left iTBS,Tone,Clear,115,2,1,0.7882702000060821,1
6355,123,Larynx,Left iTBS,Tone,Clear,116,2,1,0.7087147999991429,1
6356,123,Larynx,Left iTBS,Tone,Clear,117,3,1,0.38240849999419896,1
6357,123,Larynx,Left iTBS,Tone,Clear,118,5,1,0.3653781000029989,1
6358,123,Larynx,Left iTBS,Tone,Clear,119,4,1,0.34839719999581603,1
6359,123,Larynx,Left iTBS,Tone,Clear,120,2,1,0.38142489999881896,1
6360,123,Larynx,Left iTBS,Tone,Clear,121,3,1,0.3919175999908479,1
6361,123,Larynx,Left iTBS,Tone,Clear,122,1,0,0.671226700011175,1
6362,123,Larynx,Left iTBS,Tone,Clear,123,2,1,0.488088400001288,1
6363,123,Larynx,Left iTBS,Tone,Clear,124,3,1,0.427045000004,1
6364,123,Larynx,Left iTBS,Tone,Clear,125,1,1,0.361241600010544,1
6365,123,Larynx,Left iTBS,Tone,Clear,126,4,1,0.579400200003874,1
6366,123,Larynx,Left iTBS,Tone,Clear,127,3,1,0.4785911000071789,1
6367,123,Larynx,Left iTBS,Tone,Clear,128,4,1,0.410302700009197,1
6368,123,Larynx,Left iTBS,Tone,Clear,129,5,1,0.3788811000122221,1
6369,123,Larynx,Left iTBS,Tone,Clear,130,2,1,0.607537000003504,1
6370,123,Larynx,Left iTBS,Tone,Clear,131,1,0,0.6497315000015079,1
6371,123,Larynx,Left iTBS,Tone,Clear,132,3,1,0.384919899996021,1
6372,123,Larynx,Left iTBS,Tone,Clear,133,4,1,0.47459349999553496,1
6373,123,Larynx,Left iTBS,Tone,Clear,134,2,1,0.631785799996578,1
6374,123,Larynx,Left iTBS,Tone,Clear,135,3,1,0.4720478000090221,1
6375,123,Larynx,Left iTBS,Tone,Clear,136,4,1,0.44120119999570295,1
6376,123,Larynx,Left iTBS,Tone,Clear,137,2,1,0.37638509999669606,1
6377,123,Larynx,Left iTBS,Tone,Clear,138,4,1,0.47071410001080893,1
6378,123,Larynx,Left iTBS,Tone,Clear,139,2,1,0.427185499996995,1
6379,123,Larynx,Left iTBS,Tone,Clear,140,2,1,0.45777429999725394,1
6380,123,Larynx,Left iTBS,Tone,Clear,141,3,1,0.519267099996796,1
6381,123,Larynx,Left iTBS,Tone,Clear,142,3,1,0.433363500007545,1
6382,123,Larynx,Left iTBS,Tone,Clear,143,5,1,0.40550910000456497,1
6383,123,Larynx,Left iTBS,Tone,Clear,144,5,1,0.433011700006318,1
6384,123,Larynx,Left iTBS,Tone,Clear,145,2,1,0.42539070000930196,1
6385,123,Larynx,Left iTBS,Tone,Clear,146,3,1,0.39203030000499,1
6386,123,Larynx,Left iTBS,Tone,Clear,147,1,1,0.377294899997651,1
6387,123,Larynx,Left iTBS,Tone,Clear,148,5,1,0.492734300001757,1
6388,123,Larynx,Left iTBS,Tone,Clear,149,1,0,0.7476969999988801,1
6389,123,Larynx,Left iTBS,Tone,Clear,150,3,1,0.422979199996917,1
6390,123,Larynx,Left iTBS,Tone,Clear,151,3,1,0.36396410000452295,1
6391,123,Larynx,Left iTBS,Tone,Clear,152,3,1,0.354109600011725,1
6392,123,Larynx,Left iTBS,Tone,Clear,153,1,1,0.378240499994718,1
6393,123,Larynx,Left iTBS,Tone,Clear,154,4,1,0.48027179999917297,1
6394,123,Larynx,Left iTBS,Tone,Clear,155,4,1,0.353222599995206,1
6395,123,Larynx,Left iTBS,Tone,Clear,156,5,1,0.33364450000226503,1
8736,123,Larynx,Sham,Tone,Clear,1,4,1,0.862170199980028,1
8737,123,Larynx,Sham,Tone,Clear,2,2,0,0.5595041000051421,1
8738,123,Larynx,Sham,Tone,Clear,3,2,0,0.6769343999912961,1
8739,123,Larynx,Sham,Tone,Clear,4,3,0,0.664124400005676,1
8740,123,Larynx,Sham,Tone,Clear,5,3,1,0.506878000102006,1
8741,123,Larynx,Sham,Tone,Clear,6,3,1,0.363215000019409,1
8742,123,Larynx,Sham,Tone,Clear,7,4,1,0.413163699908182,1
8743,123,Larynx,Sham,Tone,Clear,8,1,0,0.561461800010875,1
8744,123,Larynx,Sham,Tone,Clear,9,1,0,0.5766646000556651,1
8745,123,Larynx,Sham,Tone,Clear,10,2,0,0.784153799992055,1
8746,123,Larynx,Sham,Tone,Clear,11,2,1,0.44519879994913897,1
8747,123,Larynx,Sham,Tone,Clear,12,4,1,0.467710400000215,1
8748,123,Larynx,Sham,Tone,Clear,13,5,1,0.449038999970071,1
8749,123,Larynx,Sham,Tone,Clear,14,5,1,0.573221900034696,1
8750,123,Larynx,Sham,Tone,Clear,15,3,1,0.791846999898553,1
8751,123,Larynx,Sham,Tone,Clear,16,2,0,0.47912700008601,1
8752,123,Larynx,Sham,Tone,Clear,17,4,1,0.463297800044529,1
8753,123,Larynx,Sham,Tone,Clear,18,1,0,0.582482099998742,1
8754,123,Larynx,Sham,Tone,Clear,19,1,0,0.5991487000137571,1
8755,123,Larynx,Sham,Tone,Clear,20,3,1,0.464048399939202,1
8756,123,Larynx,Sham,Tone,Clear,21,3,1,0.556530900066718,1
8757,123,Larynx,Sham,Tone,Clear,22,2,0,0.72516260005068,1
8758,123,Larynx,Sham,Tone,Clear,23,5,1,0.467286000028253,1
8759,123,Larynx,Sham,Tone,Clear,24,4,1,0.6648837999673559,1
8760,123,Larynx,Sham,Tone,Clear,25,5,1,0.501729400013573,1
8761,123,Larynx,Sham,Tone,Clear,26,3,1,0.8293680000351741,1
8762,123,Larynx,Sham,Tone,Clear,27,4,1,0.526583700091578,1
8763,123,Larynx,Sham,Tone,Clear,28,3,1,0.657946899998933,1
8764,123,Larynx,Sham,Tone,Clear,29,1,0,0.618689900031313,1
8765,123,Larynx,Sham,Tone,Clear,30,5,1,0.646685599931516,1
8766,123,Larynx,Sham,Tone,Clear,31,1,0,0.6595277000451459,1
8767,123,Larynx,Sham,Tone,Clear,32,3,1,0.602194499922916,1
8768,123,Larynx,Sham,Tone,Clear,33,5,1,0.43901720002759204,1
8769,123,Larynx,Sham,Tone,Clear,34,3,1,0.443887400091626,1
8770,123,Larynx,Sham,Tone,Clear,35,3,1,0.5928860999410971,1
8771,123,Larynx,Sham,Tone,Clear,36,2,1,0.412555699935183,1
8772,123,Larynx,Sham,Tone,Clear,37,4,1,0.450949700083584,1
8773,123,Larynx,Sham,Tone,Clear,38,2,1,0.6281628999859089,1
8774,123,Larynx,Sham,Tone,Clear,39,4,1,0.460737499990501,1
8775,123,Larynx,Sham,Tone,Clear,40,2,0,0.5710067999316379,1
8776,123,Larynx,Sham,Tone,Clear,41,3,1,0.52716080006212,1
8777,123,Larynx,Sham,Tone,Clear,42,5,1,0.38958369998727,1
8778,123,Larynx,Sham,Tone,Clear,43,4,1,0.38512990006711295,1
8779,123,Larynx,Sham,Tone,Clear,44,1,0,0.5413294000318271,1
8780,123,Larynx,Sham,Tone,Clear,45,2,1,0.588907399913296,1
8781,123,Larynx,Sham,Tone,Clear,46,5,1,0.44411899999249704,1
8782,123,Larynx,Sham,Tone,Clear,47,1,0,0.672099100076593,1
8783,123,Larynx,Sham,Tone,Clear,48,3,1,0.656817900016904,1
8784,123,Larynx,Sham,Tone,Clear,49,1,0,0.575084600015543,1
8785,123,Larynx,Sham,Tone,Clear,50,3,1,0.47230640007183,1
8786,123,Larynx,Sham,Tone,Clear,51,1,1,0.45701380004175,1
8787,123,Larynx,Sham,Tone,Clear,52,4,1,0.5466517000459129,1
8788,123,Larynx,Sham,Tone,Clear,53,5,1,0.514330800040625,1
8789,123,Larynx,Sham,Tone,Clear,54,4,1,0.548379100044258,1
8790,123,Larynx,Sham,Tone,Clear,55,4,1,0.43523139995522797,1
8791,123,Larynx,Sham,Tone,Clear,56,5,1,0.40302720002364395,1
8792,123,Larynx,Sham,Tone,Clear,57,2,0,0.618700899998657,1
8793,123,Larynx,Sham,Tone,Clear,58,2,0,0.677249899948947,1
8794,123,Larynx,Sham,Tone,Clear,59,5,1,0.48582930001430197,1
8795,123,Larynx,Sham,Tone,Clear,60,3,1,0.655395200010389,1
8796,123,Larynx,Sham,Tone,Clear,61,3,0,0.580950199975632,1
8797,123,Larynx,Sham,Tone,Clear,62,4,1,0.5079453999642279,1
8798,123,Larynx,Sham,Tone,Clear,63,2,0,0.576529800076969,1
8799,123,Larynx,Sham,Tone,Clear,64,2,1,0.5656689000315961,1
8800,123,Larynx,Sham,Tone,Clear,65,1,1,0.716017399914563,1
8801,123,Larynx,Sham,Tone,Clear,66,4,1,0.6111564999446271,1
8802,123,Larynx,Sham,Tone,Clear,67,3,1,0.7028245000401511,1
8803,123,Larynx,Sham,Tone,Clear,68,3,1,0.554445500019938,1
8804,123,Larynx,Sham,Tone,Clear,69,3,1,0.8224696000106629,1
8805,123,Larynx,Sham,Tone,Clear,70,4,1,0.543204899993725,1
8806,123,Larynx,Sham,Tone,Clear,71,5,1,0.5011886999709529,1
8807,123,Larynx,Sham,Tone,Clear,72,2,0,0.54206820006948,1
8808,123,Larynx,Sham,Tone,Clear,73,2,0,0.8043484999798242,1
8809,123,Larynx,Sham,Tone,Clear,74,3,1,0.660762500017881,1
8810,123,Larynx,Sham,Tone,Clear,75,3,1,0.938543600030243,1
8811,123,Larynx,Sham,Tone,Clear,76,3,1,0.621757399989292,1
8812,123,Larynx,Sham,Tone,Clear,77,1,0,0.581201500026509,1
8813,123,Larynx,Sham,Tone,Clear,78,4,1,0.491875099949539,1
8814,123,Larynx,Sham,Tone,Clear,79,2,0,0.537234399933368,1
8815,123,Larynx,Sham,Tone,Clear,80,4,1,0.38813889992889,1
8816,123,Larynx,Sham,Tone,Clear,81,2,1,0.41353520005941397,1
8817,123,Larynx,Sham,Tone,Clear,82,3,1,0.44924230000469795,1
8818,123,Larynx,Sham,Tone,Clear,83,2,1,0.394055599928834,1
8819,123,Larynx,Sham,Tone,Clear,84,5,0,0.470660799997859,1
8820,123,Larynx,Sham,Tone,Clear,85,3,1,0.644044199958444,1
8821,123,Larynx,Sham,Tone,Clear,86,5,1,0.43782700004521796,1
8822,123,Larynx,Sham,Tone,Clear,87,4,1,0.37262770009692797,1
8823,123,Larynx,Sham,Tone,Clear,88,4,1,0.411449100007303,1
8824,123,Larynx,Sham,Tone,Clear,89,1,0,0.562814200064167,1
8825,123,Larynx,Sham,Tone,Clear,90,3,1,0.7382935000350699,1
8826,123,Larynx,Sham,Tone,Clear,91,5,1,0.42716479999944607,1
8827,123,Larynx,Sham,Tone,Clear,92,4,1,0.40410869999322996,1
8828,123,Larynx,Sham,Tone,Clear,93,2,0,0.45034620002843395,1
8829,123,Larynx,Sham,Tone,Clear,94,3,1,0.741742699989118,1
8830,123,Larynx,Sham,Tone,Clear,95,2,0,0.6176803000271321,1
8831,123,Larynx,Sham,Tone,Clear,96,5,1,0.39409630000591295,1
8832,123,Larynx,Sham,Tone,Clear,97,3,1,0.36195320007391296,1
8833,123,Larynx,Sham,Tone,Clear,98,3,1,0.34979170002043203,1
8834,123,Larynx,Sham,Tone,Clear,99,2,0,0.576032200013287,1
8835,123,Larynx,Sham,Tone,Clear,100,1,1,0.41832890000659995,1
8836,123,Larynx,Sham,Tone,Clear,101,4,1,0.5010518999770279,1
8837,123,Larynx,Sham,Tone,Clear,102,1,0,0.5791600999655201,1
8838,123,Larynx,Sham,Tone,Clear,103,3,1,0.548051199992187,1
8839,123,Larynx,Sham,Tone,Clear,104,4,1,0.416630799998529,1
8840,123,Larynx,Sham,Tone,Clear,105,4,1,0.570444399956614,1
8841,123,Larynx,Sham,Tone,Clear,106,1,1,0.387721200007945,1
8842,123,Larynx,Sham,Tone,Clear,107,2,0,0.878395000007004,1
8843,123,Larynx,Sham,Tone,Clear,108,3,1,0.477847800008021,1
8844,123,Larynx,Sham,Tone,Clear,109,5,1,1.59177759999875,1
8845,123,Larynx,Sham,Tone,Clear,110,4,1,0.5112540000118321,1
8846,123,Larynx,Sham,Tone,Clear,111,5,1,0.759080599993467,1
8847,123,Larynx,Sham,Tone,Clear,112,3,1,0.677266500075348,1
8848,123,Larynx,Sham,Tone,Clear,113,2,0,0.451649299939163,1
8849,123,Larynx,Sham,Tone,Clear,114,3,1,0.610181599971838,1
8850,123,Larynx,Sham,Tone,Clear,115,3,1,0.411813999991864,1
8851,123,Larynx,Sham,Tone,Clear,116,1,0,0.619627399952151,1
8852,123,Larynx,Sham,Tone,Clear,117,1,0,0.86018930003047,1
8853,123,Larynx,Sham,Tone,Clear,118,5,1,0.38788519997615395,1
8854,123,Larynx,Sham,Tone,Clear,119,4,1,0.506925900001079,1
8855,123,Larynx,Sham,Tone,Clear,120,3,1,0.38386029994580895,1
8856,123,Larynx,Sham,Tone,Clear,121,4,1,0.39067520003300205,1
8857,123,Larynx,Sham,Tone,Clear,122,3,1,0.42365159990731605,1
8858,123,Larynx,Sham,Tone,Clear,123,4,1,0.5450957999564711,1
8859,123,Larynx,Sham,Tone,Clear,124,2,0,0.596500399988145,1
8860,123,Larynx,Sham,Tone,Clear,125,5,1,0.602845499990508,1
8861,123,Larynx,Sham,Tone,Clear,126,1,0,0.570858299965039,1
8862,123,Larynx,Sham,Tone,Clear,127,2,0,0.621310199960135,1
8863,123,Larynx,Sham,Tone,Clear,128,3,1,0.48555109999142604,1
8864,123,Larynx,Sham,Tone,Clear,129,3,1,0.363101799972355,1
8865,123,Larynx,Sham,Tone,Clear,130,4,1,0.352152500068769,1
8866,123,Larynx,Sham,Tone,Clear,131,3,1,0.452323299949057,1
8867,123,Larynx,Sham,Tone,Clear,132,2,1,0.34509709989652,1
8868,123,Larynx,Sham,Tone,Clear,133,4,1,0.62360459996853,1
8869,123,Larynx,Sham,Tone,Clear,134,3,1,0.414889900013804,1
8870,123,Larynx,Sham,Tone,Clear,135,5,1,0.38976960000582,1
8871,123,Larynx,Sham,Tone,Clear,136,3,1,0.364767799968831,1
8872,123,Larynx,Sham,Tone,Clear,137,2,1,0.742596400086768,1
8873,123,Larynx,Sham,Tone,Clear,138,3,1,0.505346999969333,1
8874,123,Larynx,Sham,Tone,Clear,139,1,0,0.5419694999000061,1
8875,123,Larynx,Sham,Tone,Clear,140,2,0,0.8847054999787359,1
8876,123,Larynx,Sham,Tone,Clear,141,1,1,0.39015729993116105,1
8877,123,Larynx,Sham,Tone,Clear,142,5,1,0.451116999960504,1
8878,123,Larynx,Sham,Tone,Clear,143,1,0,0.666407500044443,1
8879,123,Larynx,Sham,Tone,Clear,144,4,1,0.48867160000372706,1
8880,123,Larynx,Sham,Tone,Clear,145,1,1,0.39384939998853996,1
8881,123,Larynx,Sham,Tone,Clear,146,4,1,0.618862500065006,1
8882,123,Larynx,Sham,Tone,Clear,147,3,1,0.49511789996177,1
8883,123,Larynx,Sham,Tone,Clear,148,2,1,0.399345900048502,1
8884,123,Larynx,Sham,Tone,Clear,149,2,0,0.98884869995527,1
8885,123,Larynx,Sham,Tone,Clear,150,5,1,0.38784760003909496,1
8886,123,Larynx,Sham,Tone,Clear,151,3,1,0.45995139994192896,1
8887,123,Larynx,Sham,Tone,Clear,152,4,1,0.462737299967557,1
8888,123,Larynx,Sham,Tone,Clear,153,5,1,0.48224730009678796,1
8889,123,Larynx,Sham,Tone,Clear,154,1,0,0.5293886999133971,1
8890,123,Larynx,Sham,Tone,Clear,155,2,0,0.574470699997619,1
8891,123,Larynx,Sham,Tone,Clear,156,3,1,0.427681299974211,1
9360,139,Larynx,Left iTBS,Tone,Clear,1,5,1,0.792357400001492,1
9361,139,Larynx,Left iTBS,Tone,Clear,2,1,0,0.500684800004819,1
9362,139,Larynx,Left iTBS,Tone,Clear,3,4,0,1.04146999999648,1
9363,139,Larynx,Left iTBS,Tone,Clear,4,3,1,0.821177899997565,1
9364,139,Larynx,Left iTBS,Tone,Clear,5,3,1,0.923515400005272,1
9365,139,Larynx,Left iTBS,Tone,Clear,6,1,0,0.522220200000447,1
9366,139,Larynx,Left iTBS,Tone,Clear,7,5,1,0.4917522999894571,1
9367,139,Larynx,Left iTBS,Tone,Clear,8,4,1,0.8066143000032749,1
9368,139,Larynx,Left iTBS,Tone,Clear,9,3,0,0.994364300000598,1
9369,139,Larynx,Left iTBS,Tone,Clear,10,3,0,0.659949099994265,1
9370,139,Larynx,Left iTBS,Tone,Clear,11,1,0,0.9000318000034889,1
9371,139,Larynx,Left iTBS,Tone,Clear,12,2,0,0.723292599999695,1
9372,139,Larynx,Left iTBS,Tone,Clear,13,4,1,0.5129696000076359,1
9373,139,Larynx,Left iTBS,Tone,Clear,14,3,1,0.895116099985898,1
9374,139,Larynx,Left iTBS,Tone,Clear,15,2,0,0.740420000001905,1
9375,139,Larynx,Left iTBS,Tone,Clear,16,2,0,0.7811454000038791,1
9376,139,Larynx,Left iTBS,Tone,Clear,17,4,1,0.486333199994988,1
9377,139,Larynx,Left iTBS,Tone,Clear,18,2,0,0.6474691000039461,1
9378,139,Larynx,Left iTBS,Tone,Clear,19,3,1,0.6269772000086961,1
9379,139,Larynx,Left iTBS,Tone,Clear,20,3,1,0.761666499995044,1
9380,139,Larynx,Left iTBS,Tone,Clear,21,5,1,0.7009544999891659,1
9381,139,Larynx,Left iTBS,Tone,Clear,22,1,0,0.518191900002421,1
9382,139,Larynx,Left iTBS,Tone,Clear,23,4,1,0.48186789998726504,1
9383,139,Larynx,Left iTBS,Tone,Clear,24,4,1,0.65697199999704,1
9384,139,Larynx,Left iTBS,Tone,Clear,25,4,1,0.526694499989389,1
9385,139,Larynx,Left iTBS,Tone,Clear,26,3,0,1.0141486999928,1
9386,139,Larynx,Left iTBS,Tone,Clear,27,3,1,0.7993401999992779,1
9387,139,Larynx,Left iTBS,Tone,Clear,28,1,0,0.568570599993109,1
9388,139,Larynx,Left iTBS,Tone,Clear,29,2,0,1.00942360000045,1
9389,139,Larynx,Left iTBS,Tone,Clear,30,5,1,0.512507899999036,1
9390,139,Larynx,Left iTBS,Tone,Clear,31,2,0,0.662820600002306,1
9391,139,Larynx,Left iTBS,Tone,Clear,32,5,1,0.491349400006584,1
9392,139,Larynx,Left iTBS,Tone,Clear,33,5,1,0.60727659999975,1
9393,139,Larynx,Left iTBS,Tone,Clear,34,2,0,0.513251299998956,1
9394,139,Larynx,Left iTBS,Tone,Clear,35,3,0,0.6028719000023559,1
9395,139,Larynx,Left iTBS,Tone,Clear,36,4,1,0.668736499996157,1
9396,139,Larynx,Left iTBS,Tone,Clear,37,2,0,0.696484700005385,1
9397,139,Larynx,Left iTBS,Tone,Clear,38,1,0,0.7069209000037521,1
9398,139,Larynx,Left iTBS,Tone,Clear,39,3,1,0.4905777999956629,1
9399,139,Larynx,Left iTBS,Tone,Clear,40,1,0,0.5611480000079611,1
9400,139,Larynx,Left iTBS,Tone,Clear,41,2,0,0.727717299989308,1
9401,139,Larynx,Left iTBS,Tone,Clear,42,3,0,1.04642859999149,1
9402,139,Larynx,Left iTBS,Tone,Clear,43,2,0,0.7818903000006691,1
9403,139,Larynx,Left iTBS,Tone,Clear,44,1,0,0.71844389999751,1
9404,139,Larynx,Left iTBS,Tone,Clear,45,3,1,0.5333225999929709,1
9405,139,Larynx,Left iTBS,Tone,Clear,46,2,0,1.02321050000319,1
9406,139,Larynx,Left iTBS,Tone,Clear,47,3,1,0.9005316999973729,1
9407,139,Larynx,Left iTBS,Tone,Clear,48,2,0,0.6282287999929389,1
9408,139,Larynx,Left iTBS,Tone,Clear,49,3,0,0.7211702999920819,1
9409,139,Larynx,Left iTBS,Tone,Clear,50,4,1,0.81516919999558,1
9410,139,Larynx,Left iTBS,Tone,Clear,51,3,1,1.03293750000012,1
9411,139,Larynx,Left iTBS,Tone,Clear,52,2,0,0.6317914999963249,1
9412,139,Larynx,Left iTBS,Tone,Clear,53,3,1,0.566286899993429,1
9413,139,Larynx,Left iTBS,Tone,Clear,54,4,1,0.638664099999005,1
9414,139,Larynx,Left iTBS,Tone,Clear,55,4,1,0.819666499999585,1
9415,139,Larynx,Left iTBS,Tone,Clear,56,3,1,1.20639690000098,1
9416,139,Larynx,Left iTBS,Tone,Clear,57,4,1,0.733007000002544,1
9417,139,Larynx,Left iTBS,Tone,Clear,58,4,1,0.635870800004341,1
9418,139,Larynx,Left iTBS,Tone,Clear,59,4,1,0.970945100008976,1
9419,139,Larynx,Left iTBS,Tone,Clear,60,3,0,0.875353299998096,1
9420,139,Larynx,Left iTBS,Tone,Clear,61,3,0,1.00685399999202,1
9421,139,Larynx,Left iTBS,Tone,Clear,62,5,1,0.6861543999984859,1
9422,139,Larynx,Left iTBS,Tone,Clear,63,1,0,1.0123711999913199,1
9423,139,Larynx,Left iTBS,Tone,Clear,64,3,1,0.807626699999673,1
9424,139,Larynx,Left iTBS,Tone,Clear,65,2,0,0.890669600004912,1
9425,139,Larynx,Left iTBS,Tone,Clear,66,1,0,0.813606899988372,1
9426,139,Larynx,Left iTBS,Tone,Clear,67,2,0,0.721631600012188,1
9427,139,Larynx,Left iTBS,Tone,Clear,68,5,1,0.45923949999269104,1
9428,139,Larynx,Left iTBS,Tone,Clear,69,2,0,0.618269700004021,1
9429,139,Larynx,Left iTBS,Tone,Clear,70,5,1,0.599437700002454,1
9430,139,Larynx,Left iTBS,Tone,Clear,71,1,0,0.655120700001135,1
9431,139,Larynx,Left iTBS,Tone,Clear,72,5,1,0.5688565000018571,1
9432,139,Larynx,Left iTBS,Tone,Clear,73,4,1,1.06551089999266,1
9433,139,Larynx,Left iTBS,Tone,Clear,74,4,1,0.6731242999958339,1
9434,139,Larynx,Left iTBS,Tone,Clear,75,1,0,0.5731457000074439,1
9435,139,Larynx,Left iTBS,Tone,Clear,76,5,1,0.737898100007442,1
9436,139,Larynx,Left iTBS,Tone,Clear,77,3,0,1.0918799000064598,1
9437,139,Larynx,Left iTBS,Tone,Clear,78,5,1,0.528997999994317,1
9438,139,Larynx,Left iTBS,Tone,Clear,79,2,0,0.5633869000012061,1
9439,139,Larynx,Left iTBS,Tone,Clear,80,3,0,0.666825100008282,1
9440,139,Larynx,Left iTBS,Tone,Clear,81,4,1,0.6432089000009,1
9441,139,Larynx,Left iTBS,Tone,Clear,82,5,1,0.670298699988052,1
9442,139,Larynx,Left iTBS,Tone,Clear,83,3,0,0.5534403999918139,1
9443,139,Larynx,Left iTBS,Tone,Clear,84,2,0,0.664072500003385,1
9444,139,Larynx,Left iTBS,Tone,Clear,85,2,0,0.6115720999951011,1
9445,139,Larynx,Left iTBS,Tone,Clear,86,4,1,0.553428600003826,1
9446,139,Larynx,Left iTBS,Tone,Clear,87,4,1,0.58632669999497,1
9447,139,Larynx,Left iTBS,Tone,Clear,88,3,0,0.694117299994105,1
9448,139,Larynx,Left iTBS,Tone,Clear,89,2,0,0.707021199996234,1
9449,139,Larynx,Left iTBS,Tone,Clear,90,3,0,0.709130099989125,1
9450,139,Larynx,Left iTBS,Tone,Clear,91,3,1,1.1922682000004,1
9451,139,Larynx,Left iTBS,Tone,Clear,92,1,0,0.4532949999993429,1
9452,139,Larynx,Left iTBS,Tone,Clear,93,2,0,0.559730900000432,1
9453,139,Larynx,Left iTBS,Tone,Clear,94,3,1,1.15930030000163,1
9454,139,Larynx,Left iTBS,Tone,Clear,95,5,1,0.617383399992832,1
9455,139,Larynx,Left iTBS,Tone,Clear,96,4,1,0.7486050000006801,1
9456,139,Larynx,Left iTBS,Tone,Clear,97,5,1,0.681498499994632,1
9457,139,Larynx,Left iTBS,Tone,Clear,98,4,1,0.702970300000743,1
9458,139,Larynx,Left iTBS,Tone,Clear,99,1,0,0.50603809999302,1
9459,139,Larynx,Left iTBS,Tone,Clear,100,1,0,0.452760100000887,1
9460,139,Larynx,Left iTBS,Tone,Clear,101,1,0,0.587885899993125,1
9461,139,Larynx,Left iTBS,Tone,Clear,102,3,1,0.811485199999879,1
9462,139,Larynx,Left iTBS,Tone,Clear,103,3,1,0.962682699988363,1
9463,139,Larynx,Left iTBS,Tone,Clear,104,5,1,0.591813699997147,1
9464,139,Larynx,Left iTBS,Tone,Clear,105,4,1,0.626783900006558,1
9465,139,Larynx,Left iTBS,Tone,Clear,106,5,1,0.556041300005745,1
9466,139,Larynx,Left iTBS,Tone,Clear,107,3,0,0.6041832000046271,1
9467,139,Larynx,Left iTBS,Tone,Clear,108,2,0,0.593726499995682,1
9468,139,Larynx,Left iTBS,Tone,Clear,109,2,0,0.591742999997223,1
9469,139,Larynx,Left iTBS,Tone,Clear,110,4,0,0.6755724999966329,1
9470,139,Larynx,Left iTBS,Tone,Clear,111,2,0,0.6756998000055321,1
9471,139,Larynx,Left iTBS,Tone,Clear,112,1,0,0.7565747000044208,1
9472,139,Larynx,Left iTBS,Tone,Clear,113,5,1,0.5657179999980141,1
9473,139,Larynx,Left iTBS,Tone,Clear,114,3,0,0.937830900002155,1
9474,139,Larynx,Left iTBS,Tone,Clear,115,4,1,0.758452599999146,1
9475,139,Larynx,Left iTBS,Tone,Clear,116,1,0,0.573256300005596,1
9476,139,Larynx,Left iTBS,Tone,Clear,117,3,1,0.955259599999408,1
9477,139,Larynx,Left iTBS,Tone,Clear,118,4,1,0.624681699991925,1
9478,139,Larynx,Left iTBS,Tone,Clear,119,4,1,0.601526600003126,1
9479,139,Larynx,Left iTBS,Tone,Clear,120,3,0,0.6127688999986279,1
9480,139,Larynx,Left iTBS,Tone,Clear,121,2,0,0.9922871000017041,1
9481,139,Larynx,Left iTBS,Tone,Clear,122,3,1,0.662766300010844,1
9482,139,Larynx,Left iTBS,Tone,Clear,123,3,1,1.0509678999951602,1
9483,139,Larynx,Left iTBS,Tone,Clear,124,1,0,0.57557299999462,1
9484,139,Larynx,Left iTBS,Tone,Clear,125,3,1,0.8179456999932879,1
9485,139,Larynx,Left iTBS,Tone,Clear,126,4,1,0.699104300001636,1
9486,139,Larynx,Left iTBS,Tone,Clear,127,4,1,0.670203600006062,1
9487,139,Larynx,Left iTBS,Tone,Clear,128,5,1,0.6226546999969289,1
9488,139,Larynx,Left iTBS,Tone,Clear,129,5,1,0.6226583999959979,1
9489,139,Larynx,Left iTBS,Tone,Clear,130,2,0,0.45203839999157897,1
9490,139,Larynx,Left iTBS,Tone,Clear,131,2,0,0.6680572999903229,1
9491,139,Larynx,Left iTBS,Tone,Clear,132,4,1,0.682561400011764,1
9492,139,Larynx,Left iTBS,Tone,Clear,133,5,1,0.701323000001139,1
9493,139,Larynx,Left iTBS,Tone,Clear,134,2,0,0.667876199993771,1
9494,139,Larynx,Left iTBS,Tone,Clear,135,5,1,0.8143951999954879,1
9495,139,Larynx,Left iTBS,Tone,Clear,136,4,1,1.03082910001103,1
9496,139,Larynx,Left iTBS,Tone,Clear,137,2,0,0.5906635999999711,1
9497,139,Larynx,Left iTBS,Tone,Clear,138,1,0,0.588889899998321,1
9498,139,Larynx,Left iTBS,Tone,Clear,139,2,0,0.641562999997404,1
9499,139,Larynx,Left iTBS,Tone,Clear,140,1,0,0.667427700012922,1
9500,139,Larynx,Left iTBS,Tone,Clear,141,4,1,0.49326319999818197,1
9501,139,Larynx,Left iTBS,Tone,Clear,142,5,1,0.47226139999111205,1
9502,139,Larynx,Left iTBS,Tone,Clear,143,3,0,0.700787399997353,1
9503,139,Larynx,Left iTBS,Tone,Clear,144,3,1,1.1249086000025301,1
9504,139,Larynx,Left iTBS,Tone,Clear,145,2,0,0.575753500001156,1
9505,139,Larynx,Left iTBS,Tone,Clear,146,1,0,0.506020199987688,1
9506,139,Larynx,Left iTBS,Tone,Clear,147,3,1,0.8611935000080849,1
9507,139,Larynx,Left iTBS,Tone,Clear,148,2,0,0.7479180000082121,1
9508,139,Larynx,Left iTBS,Tone,Clear,149,3,1,0.981531400000677,1
9509,139,Larynx,Left iTBS,Tone,Clear,150,1,0,0.7525151000008922,1
9510,139,Larynx,Left iTBS,Tone,Clear,151,5,1,0.46589019999373704,1
9511,139,Larynx,Left iTBS,Tone,Clear,152,3,0,0.682341599997017,1
9512,139,Larynx,Left iTBS,Tone,Clear,153,4,1,0.562483999994583,1
9513,139,Larynx,Left iTBS,Tone,Clear,154,3,0,0.6017829000047641,1
9514,139,Larynx,Left iTBS,Tone,Clear,155,1,0,0.687667999998666,1
9515,139,Larynx,Left iTBS,Tone,Clear,156,3,1,0.722742799989646,1
11856,139,Larynx,Sham,Tone,Clear,1,4,1,0.7818881000057439,1
11857,139,Larynx,Sham,Tone,Clear,2,2,0,0.474503099998401,1
11858,139,Larynx,Sham,Tone,Clear,3,2,0,0.8289355000015349,1
11859,139,Larynx,Sham,Tone,Clear,4,3,1,0.8213532999943709,1
11860,139,Larynx,Sham,Tone,Clear,5,3,0,0.8579582000020308,1
11861,139,Larynx,Sham,Tone,Clear,6,3,1,0.8422052000023539,1
11862,139,Larynx,Sham,Tone,Clear,7,4,1,0.924107899998489,1
11863,139,Larynx,Sham,Tone,Clear,8,1,0,0.534117300005164,1
11864,139,Larynx,Sham,Tone,Clear,9,1,0,0.654547600002843,1
11865,139,Larynx,Sham,Tone,Clear,10,2,1,0.9475633999973071,1
11866,139,Larynx,Sham,Tone,Clear,11,2,1,1.16263679999975,1
11867,139,Larynx,Sham,Tone,Clear,12,4,1,0.7266509999972192,1
11868,139,Larynx,Sham,Tone,Clear,13,5,1,0.635464899998624,1
11869,139,Larynx,Sham,Tone,Clear,14,5,1,0.6407045000014481,1
11870,139,Larynx,Sham,Tone,Clear,15,3,0,1.03630870000052,1
11871,139,Larynx,Sham,Tone,Clear,16,2,0,0.640642000005755,1
11872,139,Larynx,Sham,Tone,Clear,17,4,1,0.5327541000006021,1
11873,139,Larynx,Sham,Tone,Clear,18,1,0,0.629667599998356,1
11874,139,Larynx,Sham,Tone,Clear,19,1,0,0.650240099996154,1
11875,139,Larynx,Sham,Tone,Clear,20,3,1,0.7652082999993579,1
11876,139,Larynx,Sham,Tone,Clear,21,3,1,0.976534200002789,1
11877,139,Larynx,Sham,Tone,Clear,22,2,0,0.6062581999940451,1
11878,139,Larynx,Sham,Tone,Clear,23,5,1,0.720507999998517,1
11879,139,Larynx,Sham,Tone,Clear,24,4,1,0.6542747000057719,1
11880,139,Larynx,Sham,Tone,Clear,25,5,1,0.5918234000055239,1
11881,139,Larynx,Sham,Tone,Clear,26,3,1,1.24599359999411,1
11882,139,Larynx,Sham,Tone,Clear,27,4,1,0.723858199999086,1
11883,139,Larynx,Sham,Tone,Clear,28,3,1,1.16821319999872,1
11884,139,Larynx,Sham,Tone,Clear,29,1,0,0.939424799995322,1
11885,139,Larynx,Sham,Tone,Clear,30,5,1,0.7689411999963341,1
11886,139,Larynx,Sham,Tone,Clear,31,1,0,1.1178507000004199,1
11887,139,Larynx,Sham,Tone,Clear,32,3,1,0.8216577999992299,1
11888,139,Larynx,Sham,Tone,Clear,33,5,1,0.9942571999999928,1
11889,139,Larynx,Sham,Tone,Clear,34,3,1,0.7156738000048791,1
11890,139,Larynx,Sham,Tone,Clear,35,3,1,0.782960900003673,1
11891,139,Larynx,Sham,Tone,Clear,36,2,0,0.6268137000006391,1
11892,139,Larynx,Sham,Tone,Clear,37,4,1,0.7273927999995071,1
11893,139,Larynx,Sham,Tone,Clear,38,2,0,0.8453384999957049,1
11894,139,Larynx,Sham,Tone,Clear,39,4,1,0.7477916999996519,1
11895,139,Larynx,Sham,Tone,Clear,40,2,0,0.6292791000014399,1
11896,139,Larynx,Sham,Tone,Clear,41,3,1,0.944041800001287,1
11897,139,Larynx,Sham,Tone,Clear,42,5,1,0.5913465999983599,1
11898,139,Larynx,Sham,Tone,Clear,43,4,1,0.7035443999993729,1
11899,139,Larynx,Sham,Tone,Clear,44,1,0,0.514717199999723,1
11900,139,Larynx,Sham,Tone,Clear,45,2,0,0.740770999997039,1
11901,139,Larynx,Sham,Tone,Clear,46,5,1,0.509855600001174,1
11902,139,Larynx,Sham,Tone,Clear,47,1,0,0.704761799999687,1
11903,139,Larynx,Sham,Tone,Clear,48,3,1,0.7613093000036321,1
11904,139,Larynx,Sham,Tone,Clear,49,1,0,0.6823277000003151,1
11905,139,Larynx,Sham,Tone,Clear,50,3,1,0.689872599999944,1
11906,139,Larynx,Sham,Tone,Clear,51,1,0,0.7639194000003041,1
11907,139,Larynx,Sham,Tone,Clear,52,4,1,0.535447399997793,1
11908,139,Larynx,Sham,Tone,Clear,53,5,1,0.6592779000056911,1
11909,139,Larynx,Sham,Tone,Clear,54,4,1,0.6194306999968829,1
11910,139,Larynx,Sham,Tone,Clear,55,4,1,0.593677500000922,1
11911,139,Larynx,Sham,Tone,Clear,56,5,1,0.6616082999971701,1
11912,139,Larynx,Sham,Tone,Clear,57,2,0,0.6824909000060869,1
11913,139,Larynx,Sham,Tone,Clear,58,2,0,0.9078526000012059,1
11914,139,Larynx,Sham,Tone,Clear,59,5,1,0.49659190000238596,1
11915,139,Larynx,Sham,Tone,Clear,60,3,0,0.935720100002072,1
11916,139,Larynx,Sham,Tone,Clear,61,3,0,1.2564859999984,1
11917,139,Larynx,Sham,Tone,Clear,62,4,1,0.679918300003919,1
11918,139,Larynx,Sham,Tone,Clear,63,2,0,0.966023499997391,1
11919,139,Larynx,Sham,Tone,Clear,64,2,0,0.7535679000066009,1
11920,139,Larynx,Sham,Tone,Clear,65,1,0,0.647378699999535,1
11921,139,Larynx,Sham,Tone,Clear,66,4,1,0.7148979000048711,1
11922,139,Larynx,Sham,Tone,Clear,67,3,1,0.944946000003256,1
11923,139,Larynx,Sham,Tone,Clear,68,3,0,0.8909580000035929,1
11924,139,Larynx,Sham,Tone,Clear,69,3,1,0.921047300005739,1
11925,139,Larynx,Sham,Tone,Clear,70,4,1,0.806048300000839,1
11926,139,Larynx,Sham,Tone,Clear,71,5,1,0.705060699998285,1
11927,139,Larynx,Sham,Tone,Clear,72,2,0,0.6801640000048791,1
11928,139,Larynx,Sham,Tone,Clear,73,2,0,0.753046300000278,1
11929,139,Larynx,Sham,Tone,Clear,74,3,1,1.1144152999986499,1
11930,139,Larynx,Sham,Tone,Clear,75,3,1,1.1567321000038602,1
11931,139,Larynx,Sham,Tone,Clear,76,3,0,1.2700989000004501,1
11932,139,Larynx,Sham,Tone,Clear,77,1,0,0.768865500001994,1
11933,139,Larynx,Sham,Tone,Clear,78,4,1,0.626293299996178,1
11934,139,Larynx,Sham,Tone,Clear,79,2,0,0.734229999994568,1
11935,139,Larynx,Sham,Tone,Clear,80,4,1,0.608526700001676,1
11936,139,Larynx,Sham,Tone,Clear,81,2,0,0.75957699999708,1
11937,139,Larynx,Sham,Tone,Clear,82,3,1,0.6424994000044529,1
11938,139,Larynx,Sham,Tone,Clear,83,2,0,0.617680700001074,1
11939,139,Larynx,Sham,Tone,Clear,84,5,1,0.636349499996868,1
11940,139,Larynx,Sham,Tone,Clear,85,3,1,0.940243900004134,1
11941,139,Larynx,Sham,Tone,Clear,86,5,1,0.773711999994703,1
11942,139,Larynx,Sham,Tone,Clear,87,4,1,0.7522823000035709,1
11943,139,Larynx,Sham,Tone,Clear,88,4,1,0.755126299998665,1
11944,139,Larynx,Sham,Tone,Clear,89,1,0,0.506969000001845,1
11945,139,Larynx,Sham,Tone,Clear,90,3,1,0.839482800001861,1
11946,139,Larynx,Sham,Tone,Clear,91,5,1,0.6266680000044289,1
11947,139,Larynx,Sham,Tone,Clear,92,4,1,0.6780990999977801,1
11948,139,Larynx,Sham,Tone,Clear,93,2,0,0.52025390000199,1
11949,139,Larynx,Sham,Tone,Clear,94,3,1,0.7404550999999631,1
11950,139,Larynx,Sham,Tone,Clear,95,2,0,0.6626823999977199,1
11951,139,Larynx,Sham,Tone,Clear,96,5,1,0.675790999994206,1
11952,139,Larynx,Sham,Tone,Clear,97,3,1,0.9689770000040879,1
11953,139,Larynx,Sham,Tone,Clear,98,3,0,1.2611064000011498,1
11954,139,Larynx,Sham,Tone,Clear,99,2,0,0.652551500003028,1
11955,139,Larynx,Sham,Tone,Clear,100,1,0,0.8188312999991469,1
11956,139,Larynx,Sham,Tone,Clear,101,4,1,0.6463943999988261,1
11957,139,Larynx,Sham,Tone,Clear,102,1,0,1.28056469999865,1
11958,139,Larynx,Sham,Tone,Clear,103,3,0,1.1047488999975,1
11959,139,Larynx,Sham,Tone,Clear,104,4,1,0.834365599999728,1
11960,139,Larynx,Sham,Tone,Clear,105,4,1,0.7303549999996899,1
11961,139,Larynx,Sham,Tone,Clear,106,1,0,0.45527949999814205,1
11962,139,Larynx,Sham,Tone,Clear,107,2,0,0.662805499996466,1
11963,139,Larynx,Sham,Tone,Clear,108,3,1,0.8781639000008,1
11964,139,Larynx,Sham,Tone,Clear,109,5,1,0.8462883999964109,1
11965,139,Larynx,Sham,Tone,Clear,110,4,1,0.803627699999197,1
11966,139,Larynx,Sham,Tone,Clear,111,5,1,0.7521474000022859,1
11967,139,Larynx,Sham,Tone,Clear,112,3,0,0.774296099996718,1
11968,139,Larynx,Sham,Tone,Clear,113,2,0,0.6338414000056221,1
11969,139,Larynx,Sham,Tone,Clear,114,3,1,0.8481987000050141,1
11970,139,Larynx,Sham,Tone,Clear,115,3,1,0.7427033999993001,1
11971,139,Larynx,Sham,Tone,Clear,116,1,0,0.587384600003134,1
11972,139,Larynx,Sham,Tone,Clear,117,1,0,0.7078622000044559,1
11973,139,Larynx,Sham,Tone,Clear,118,5,1,0.6275120999998759,1
11974,139,Larynx,Sham,Tone,Clear,119,4,1,0.520007999999507,1
11975,139,Larynx,Sham,Tone,Clear,120,3,1,1.0395989000026,1
11976,139,Larynx,Sham,Tone,Clear,121,4,1,0.799060799996369,1
11977,139,Larynx,Sham,Tone,Clear,122,3,0,0.9335671000008009,1
11978,139,Larynx,Sham,Tone,Clear,123,4,1,0.812313199996424,1
11979,139,Larynx,Sham,Tone,Clear,124,2,0,0.604376299997966,1
11980,139,Larynx,Sham,Tone,Clear,125,5,1,0.640508700002101,1
11981,139,Larynx,Sham,Tone,Clear,126,1,0,0.8759916999988492,1
11982,139,Larynx,Sham,Tone,Clear,127,2,0,0.635131700000784,1
11983,139,Larynx,Sham,Tone,Clear,128,3,1,0.8369953000001259,1
11984,139,Larynx,Sham,Tone,Clear,129,3,0,0.927637199994933,1
11985,139,Larynx,Sham,Tone,Clear,130,4,1,0.9477592999974151,1
11986,139,Larynx,Sham,Tone,Clear,131,3,0,1.04990270000417,1
11987,139,Larynx,Sham,Tone,Clear,132,2,0,0.83275020000292,1
11988,139,Larynx,Sham,Tone,Clear,133,4,1,0.6768851000015269,1
11989,139,Larynx,Sham,Tone,Clear,134,3,1,0.84143259999837,1
11990,139,Larynx,Sham,Tone,Clear,135,5,1,0.6606649000023029,1
11991,139,Larynx,Sham,Tone,Clear,136,3,0,0.786249099997804,1
11992,139,Larynx,Sham,Tone,Clear,137,2,0,0.712410899999668,1
11993,139,Larynx,Sham,Tone,Clear,138,3,1,0.6879818999950661,1
11994,139,Larynx,Sham,Tone,Clear,139,1,0,0.697483799995098,1
11995,139,Larynx,Sham,Tone,Clear,140,2,0,0.6991788999948771,1
11996,139,Larynx,Sham,Tone,Clear,141,1,0,0.8692941000044809,1
11997,139,Larynx,Sham,Tone,Clear,142,5,1,0.544607299998461,1
11998,139,Larynx,Sham,Tone,Clear,143,1,0,0.799251799995545,1
11999,139,Larynx,Sham,Tone,Clear,144,4,1,0.768605899997056,1
12000,139,Larynx,Sham,Tone,Clear,145,1,0,0.621584099993925,1
12001,139,Larynx,Sham,Tone,Clear,146,4,1,0.761611499998253,1
12002,139,Larynx,Sham,Tone,Clear,147,3,1,0.943563599998015,1
12003,139,Larynx,Sham,Tone,Clear,148,2,0,0.5724847000019511,1
12004,139,Larynx,Sham,Tone,Clear,149,2,0,0.681649499994819,1
12005,139,Larynx,Sham,Tone,Clear,150,5,1,0.588431500000297,1
12006,139,Larynx,Sham,Tone,Clear,151,3,1,1.22443850000127,1
12007,139,Larynx,Sham,Tone,Clear,152,4,1,0.625571700002183,1
12008,139,Larynx,Sham,Tone,Clear,153,5,1,0.8194507000007429,1
12009,139,Larynx,Sham,Tone,Clear,154,1,0,0.6437414000029089,1
12010,139,Larynx,Sham,Tone,Clear,155,2,0,0.76219790000323,1
12011,139,Larynx,Sham,Tone,Clear,156,3,1,0.8359131999968671,1
12480,142,Larynx,Left iTBS,Tone,Clear,1,3,1,0.698267499974463,1
12481,142,Larynx,Left iTBS,Tone,Clear,2,4,1,0.5657624999876129,1
12482,142,Larynx,Left iTBS,Tone,Clear,3,4,1,0.561496699985582,1
12483,142,Larynx,Left iTBS,Tone,Clear,4,5,1,0.4257033999892879,1
12484,142,Larynx,Left iTBS,Tone,Clear,5,4,1,0.42905460001202295,1
12485,142,Larynx,Left iTBS,Tone,Clear,6,4,1,0.546767299994826,1
12486,142,Larynx,Left iTBS,Tone,Clear,7,5,1,0.557385499996599,1
12487,142,Larynx,Left iTBS,Tone,Clear,8,5,1,0.5585710000013929,1
12488,142,Larynx,Left iTBS,Tone,Clear,9,1,0,0.794314400001895,1
12489,142,Larynx,Left iTBS,Tone,Clear,10,3,1,0.683172499993816,1
12490,142,Larynx,Left iTBS,Tone,Clear,11,5,1,0.634269599977415,1
12491,142,Larynx,Left iTBS,Tone,Clear,12,2,0,0.67923960002372,1
12492,142,Larynx,Left iTBS,Tone,Clear,13,3,1,0.660571500018705,1
12493,142,Larynx,Left iTBS,Tone,Clear,14,1,0,0.48076910001691403,1
12494,142,Larynx,Left iTBS,Tone,Clear,15,1,0,0.538568700023461,1
12495,142,Larynx,Left iTBS,Tone,Clear,16,2,0,0.5008242999902001,1
12496,142,Larynx,Left iTBS,Tone,Clear,17,3,0,0.511342299985699,1
12497,142,Larynx,Left iTBS,Tone,Clear,18,1,0,0.633470500004478,1
12498,142,Larynx,Left iTBS,Tone,Clear,19,3,1,0.409196199965663,1
12499,142,Larynx,Left iTBS,Tone,Clear,20,3,1,0.563027099997271,1
12500,142,Larynx,Left iTBS,Tone,Clear,21,3,1,0.553428500017617,1
12501,142,Larynx,Left iTBS,Tone,Clear,22,4,1,0.526714699983131,1
12502,142,Larynx,Left iTBS,Tone,Clear,23,4,1,0.6673013999825339,1
12503,142,Larynx,Left iTBS,Tone,Clear,24,5,1,0.686422600003425,1
12504,142,Larynx,Left iTBS,Tone,Clear,25,3,1,0.6346826000371949,1
12505,142,Larynx,Left iTBS,Tone,Clear,26,3,1,0.598590000008699,1
12506,142,Larynx,Left iTBS,Tone,Clear,27,3,0,0.554545299964957,1
12507,142,Larynx,Left iTBS,Tone,Clear,28,1,1,0.418784699984826,1
12508,142,Larynx,Left iTBS,Tone,Clear,29,4,1,0.685774400015362,1
12509,142,Larynx,Left iTBS,Tone,Clear,30,2,0,0.40431069995975105,1
12510,142,Larynx,Left iTBS,Tone,Clear,31,2,0,0.38293759996304294,1
12511,142,Larynx,Left iTBS,Tone,Clear,32,3,1,0.555052099982277,1
12512,142,Larynx,Left iTBS,Tone,Clear,33,4,1,0.45999810000648705,1
12513,142,Larynx,Left iTBS,Tone,Clear,34,5,1,0.6020311000174839,1
12514,142,Larynx,Left iTBS,Tone,Clear,35,2,0,0.654722600011155,1
12515,142,Larynx,Left iTBS,Tone,Clear,36,2,1,0.588110000011511,1
12516,142,Larynx,Left iTBS,Tone,Clear,37,2,0,0.6265399000258189,1
12517,142,Larynx,Left iTBS,Tone,Clear,38,1,0,0.690051699988544,1
12518,142,Larynx,Left iTBS,Tone,Clear,39,2,0,0.554900600051042,1
12519,142,Larynx,Left iTBS,Tone,Clear,40,4,1,0.446938700042665,1
12520,142,Larynx,Left iTBS,Tone,Clear,41,3,1,0.7196094000246379,1
12521,142,Larynx,Left iTBS,Tone,Clear,42,4,1,0.490980600006878,1
12522,142,Larynx,Left iTBS,Tone,Clear,43,1,0,0.47599479998461897,1
12523,142,Larynx,Left iTBS,Tone,Clear,44,1,1,0.38722179998876505,1
12524,142,Larynx,Left iTBS,Tone,Clear,45,2,1,0.672184999973979,1
12525,142,Larynx,Left iTBS,Tone,Clear,46,4,1,0.590485099994112,1
12526,142,Larynx,Left iTBS,Tone,Clear,47,4,1,0.46240509999915996,1
12527,142,Larynx,Left iTBS,Tone,Clear,48,5,1,0.47015190002275603,1
12528,142,Larynx,Left iTBS,Tone,Clear,49,4,1,0.46210159995826,1
12529,142,Larynx,Left iTBS,Tone,Clear,50,2,1,0.442232000001241,1
12530,142,Larynx,Left iTBS,Tone,Clear,51,1,0,0.404257500020321,1
12531,142,Larynx,Left iTBS,Tone,Clear,52,3,1,0.699716500006616,1
12532,142,Larynx,Left iTBS,Tone,Clear,53,5,1,0.68267199996626,1
12533,142,Larynx,Left iTBS,Tone,Clear,54,2,0,0.530999000009615,1
12534,142,Larynx,Left iTBS,Tone,Clear,55,2,0,0.5453819999820549,1
12535,142,Larynx,Left iTBS,Tone,Clear,56,3,0,0.520932100014761,1
12536,142,Larynx,Left iTBS,Tone,Clear,57,5,1,0.539940299990121,1
12537,142,Larynx,Left iTBS,Tone,Clear,58,3,1,1.02492469997378,1
12538,142,Larynx,Left iTBS,Tone,Clear,59,3,1,0.591796699969564,1
12539,142,Larynx,Left iTBS,Tone,Clear,60,2,0,0.5801281000021851,1
12540,142,Larynx,Left iTBS,Tone,Clear,61,3,1,0.527109899965581,1
12541,142,Larynx,Left iTBS,Tone,Clear,62,4,1,0.6288088999572211,1
12542,142,Larynx,Left iTBS,Tone,Clear,63,3,1,0.543260600010399,1
12543,142,Larynx,Left iTBS,Tone,Clear,64,5,1,0.537125099974219,1
12544,142,Larynx,Left iTBS,Tone,Clear,65,3,0,0.41940139996586406,1
12545,142,Larynx,Left iTBS,Tone,Clear,66,3,1,0.7659211999853142,1
12546,142,Larynx,Left iTBS,Tone,Clear,67,4,1,0.5206879000179471,1
12547,142,Larynx,Left iTBS,Tone,Clear,68,1,0,0.585075900016818,1
12548,142,Larynx,Left iTBS,Tone,Clear,69,3,1,0.702184800000396,1
12549,142,Larynx,Left iTBS,Tone,Clear,70,5,1,0.67418109998107,1
12550,142,Larynx,Left iTBS,Tone,Clear,71,3,1,0.549985199992079,1
12551,142,Larynx,Left iTBS,Tone,Clear,72,4,1,0.497113700024784,1
12552,142,Larynx,Left iTBS,Tone,Clear,73,5,1,0.5912632999825289,1
12553,142,Larynx,Left iTBS,Tone,Clear,74,2,0,0.41367799998260996,1
12554,142,Larynx,Left iTBS,Tone,Clear,75,1,0,0.49592730001313595,1
12555,142,Larynx,Left iTBS,Tone,Clear,76,2,0,0.608254900027532,1
12556,142,Larynx,Left iTBS,Tone,Clear,77,1,0,0.8555319000151941,1
12557,142,Larynx,Left iTBS,Tone,Clear,78,2,0,0.7791244999971241,1
12558,142,Larynx,Left iTBS,Tone,Clear,79,5,1,0.398614300007466,1
12559,142,Larynx,Left iTBS,Tone,Clear,80,2,0,0.723402899981011,1
12560,142,Larynx,Left iTBS,Tone,Clear,81,2,0,0.558623899996746,1
12561,142,Larynx,Left iTBS,Tone,Clear,82,2,0,0.520915000000969,1
12562,142,Larynx,Left iTBS,Tone,Clear,83,4,1,0.580798000039067,1
12563,142,Larynx,Left iTBS,Tone,Clear,84,2,0,0.644288699957542,1
12564,142,Larynx,Left iTBS,Tone,Clear,85,2,0,0.48557120002806203,1
12565,142,Larynx,Left iTBS,Tone,Clear,86,1,0,0.5608136000228111,1
12566,142,Larynx,Left iTBS,Tone,Clear,87,5,1,0.995279199967626,1
12567,142,Larynx,Left iTBS,Tone,Clear,88,5,1,0.537938199995551,1
12568,142,Larynx,Left iTBS,Tone,Clear,89,3,1,0.822949699999299,1
12569,142,Larynx,Left iTBS,Tone,Clear,90,3,1,0.694117599981837,1
12570,142,Larynx,Left iTBS,Tone,Clear,91,3,1,1.2597087000031,1
12571,142,Larynx,Left iTBS,Tone,Clear,92,4,1,0.6716842000023461,1
12572,142,Larynx,Left iTBS,Tone,Clear,93,4,1,0.589919999998529,1
12573,142,Larynx,Left iTBS,Tone,Clear,94,5,1,0.6545735999825409,1
12574,142,Larynx,Left iTBS,Tone,Clear,95,4,1,0.52657329995418,1
12575,142,Larynx,Left iTBS,Tone,Clear,96,5,1,0.6012293000239879,1
12576,142,Larynx,Left iTBS,Tone,Clear,97,1,0,0.73926639999263,1
12577,142,Larynx,Left iTBS,Tone,Clear,98,3,1,0.6204044999904,1
12578,142,Larynx,Left iTBS,Tone,Clear,99,1,1,0.729283900000155,1
12579,142,Larynx,Left iTBS,Tone,Clear,100,3,1,0.74441119999392,1
12580,142,Larynx,Left iTBS,Tone,Clear,101,1,0,0.5415922999964099,1
12581,142,Larynx,Left iTBS,Tone,Clear,102,4,1,0.47034519998123897,1
12582,142,Larynx,Left iTBS,Tone,Clear,103,3,1,0.540655800024979,1
12583,142,Larynx,Left iTBS,Tone,Clear,104,4,1,0.44730939995497493,1
12584,142,Larynx,Left iTBS,Tone,Clear,105,2,0,0.708550399984233,1
12585,142,Larynx,Left iTBS,Tone,Clear,106,3,1,0.522743400011677,1
12586,142,Larynx,Left iTBS,Tone,Clear,107,3,1,0.6675536000402641,1
12587,142,Larynx,Left iTBS,Tone,Clear,108,5,1,0.533494200033601,1
12588,142,Larynx,Left iTBS,Tone,Clear,109,3,1,0.9961018000030891,1
12589,142,Larynx,Left iTBS,Tone,Clear,110,2,0,0.5181111000129021,1
12590,142,Larynx,Left iTBS,Tone,Clear,111,1,0,0.517335499986075,1
12591,142,Larynx,Left iTBS,Tone,Clear,112,4,1,0.509419500012882,1
12592,142,Larynx,Left iTBS,Tone,Clear,113,3,1,0.725703299976885,1
12593,142,Larynx,Left iTBS,Tone,Clear,114,4,1,1.09249349997845,1
12594,142,Larynx,Left iTBS,Tone,Clear,115,1,0,0.642293300013989,1
12595,142,Larynx,Left iTBS,Tone,Clear,116,2,0,0.541081200004555,1
12596,142,Larynx,Left iTBS,Tone,Clear,117,3,1,0.6341985999606551,1
12597,142,Larynx,Left iTBS,Tone,Clear,118,1,0,0.6127065999899061,1
12598,142,Larynx,Left iTBS,Tone,Clear,119,3,1,0.598205799993593,1
12599,142,Larynx,Left iTBS,Tone,Clear,120,1,0,0.555396399984602,1
12600,142,Larynx,Left iTBS,Tone,Clear,121,3,1,0.446428700000979,1
12601,142,Larynx,Left iTBS,Tone,Clear,122,2,1,0.672087700047996,1
12602,142,Larynx,Left iTBS,Tone,Clear,123,4,1,0.599963199987542,1
12603,142,Larynx,Left iTBS,Tone,Clear,124,4,1,0.5926362999598499,1
12604,142,Larynx,Left iTBS,Tone,Clear,125,3,1,0.7072036999743431,1
12605,142,Larynx,Left iTBS,Tone,Clear,126,3,1,0.54639940004563,1
12606,142,Larynx,Left iTBS,Tone,Clear,127,2,0,0.5561351000214929,1
12607,142,Larynx,Left iTBS,Tone,Clear,128,4,1,0.5849041000474239,1
12608,142,Larynx,Left iTBS,Tone,Clear,129,5,1,0.569618499954231,1
12609,142,Larynx,Left iTBS,Tone,Clear,130,2,0,0.511852399969939,1
12610,142,Larynx,Left iTBS,Tone,Clear,131,1,0,0.555668799963314,1
12611,142,Larynx,Left iTBS,Tone,Clear,132,2,0,0.5685574999661179,1
12612,142,Larynx,Left iTBS,Tone,Clear,133,5,1,0.425507500011008,1
12613,142,Larynx,Left iTBS,Tone,Clear,134,3,0,0.60302410001168,1
12614,142,Larynx,Left iTBS,Tone,Clear,135,3,0,0.454150200006552,1
12615,142,Larynx,Left iTBS,Tone,Clear,136,3,1,0.619663699995726,1
12616,142,Larynx,Left iTBS,Tone,Clear,137,2,0,0.7880962000344879,1
12617,142,Larynx,Left iTBS,Tone,Clear,138,3,1,0.524615600006655,1
12618,142,Larynx,Left iTBS,Tone,Clear,139,4,1,0.6138999999966469,1
12619,142,Larynx,Left iTBS,Tone,Clear,140,3,1,0.6724170999950729,1
12620,142,Larynx,Left iTBS,Tone,Clear,141,4,1,0.477550300012808,1
12621,142,Larynx,Left iTBS,Tone,Clear,142,1,0,0.515548499999568,1
12622,142,Larynx,Left iTBS,Tone,Clear,143,5,1,0.5626868000254039,1
12623,142,Larynx,Left iTBS,Tone,Clear,144,2,0,0.7029749000212181,1
12624,142,Larynx,Left iTBS,Tone,Clear,145,3,1,0.542249199992511,1
12625,142,Larynx,Left iTBS,Tone,Clear,146,4,1,0.576329600007739,1
12626,142,Larynx,Left iTBS,Tone,Clear,147,1,0,0.563456400006544,1
12627,142,Larynx,Left iTBS,Tone,Clear,148,1,0,0.5283236000104811,1
12628,142,Larynx,Left iTBS,Tone,Clear,149,2,0,0.588869399973191,1
12629,142,Larynx,Left iTBS,Tone,Clear,150,5,1,0.419513900007587,1
12630,142,Larynx,Left iTBS,Tone,Clear,151,5,1,0.467326599988155,1
12631,142,Larynx,Left iTBS,Tone,Clear,152,5,1,0.516345799958799,1
12632,142,Larynx,Left iTBS,Tone,Clear,153,4,1,0.514660399989225,1
12633,142,Larynx,Left iTBS,Tone,Clear,154,3,1,0.797410500003025,1
12634,142,Larynx,Left iTBS,Tone,Clear,155,2,0,0.621638000011444,1
12635,142,Larynx,Left iTBS,Tone,Clear,156,4,1,0.453509300015867,1
14976,142,Larynx,Sham,Tone,Clear,1,3,1,0.8087832999990501,1
14977,142,Larynx,Sham,Tone,Clear,2,4,1,0.651761999997689,1
14978,142,Larynx,Sham,Tone,Clear,3,2,0,0.511792999997851,1
14979,142,Larynx,Sham,Tone,Clear,4,5,1,0.6303017000027471,1
14980,142,Larynx,Sham,Tone,Clear,5,2,0,0.48858699999982497,1
14981,142,Larynx,Sham,Tone,Clear,6,3,1,0.8353018999987399,1
14982,142,Larynx,Sham,Tone,Clear,7,2,0,0.48307209999984496,1
14983,142,Larynx,Sham,Tone,Clear,8,5,1,0.657168600002478,1
14984,142,Larynx,Sham,Tone,Clear,9,1,0,0.46935229999871797,1
14985,142,Larynx,Sham,Tone,Clear,10,3,1,0.652590400000918,1
14986,142,Larynx,Sham,Tone,Clear,11,4,1,0.6769163000026309,1
14987,142,Larynx,Sham,Tone,Clear,12,3,1,0.675862899999629,1
14988,142,Larynx,Sham,Tone,Clear,13,5,1,0.619618400000036,1
14989,142,Larynx,Sham,Tone,Clear,14,4,1,0.516843900000822,1
14990,142,Larynx,Sham,Tone,Clear,15,4,1,0.5366593999970061,1
14991,142,Larynx,Sham,Tone,Clear,16,2,0,0.57842630000232,1
14992,142,Larynx,Sham,Tone,Clear,17,4,1,0.550445099997887,1
14993,142,Larynx,Sham,Tone,Clear,18,3,1,0.5708909999993921,1
14994,142,Larynx,Sham,Tone,Clear,19,1,0,0.620979600000283,1
14995,142,Larynx,Sham,Tone,Clear,20,2,0,0.540837399999873,1
14996,142,Larynx,Sham,Tone,Clear,21,3,1,0.8080004000003101,1
14997,142,Larynx,Sham,Tone,Clear,22,5,1,0.542599599997629,1
14998,142,Larynx,Sham,Tone,Clear,23,4,1,0.552406400001928,1
14999,142,Larynx,Sham,Tone,Clear,24,1,0,0.552370000001247,1
15000,142,Larynx,Sham,Tone,Clear,25,5,1,0.5598554999996851,1
15001,142,Larynx,Sham,Tone,Clear,26,2,1,0.622430300001724,1
15002,142,Larynx,Sham,Tone,Clear,27,3,0,0.813523699998768,1
15003,142,Larynx,Sham,Tone,Clear,28,1,0,0.5948156999984351,1
15004,142,Larynx,Sham,Tone,Clear,29,4,1,0.44679610000093795,1
15005,142,Larynx,Sham,Tone,Clear,30,1,0,0.499539600001299,1
15006,142,Larynx,Sham,Tone,Clear,31,1,0,0.6333526999987951,1
15007,142,Larynx,Sham,Tone,Clear,32,3,1,0.4532198999986579,1
15008,142,Larynx,Sham,Tone,Clear,33,5,1,0.6722283000017341,1
15009,142,Larynx,Sham,Tone,Clear,34,2,0,0.67599639999753,1
15010,142,Larynx,Sham,Tone,Clear,35,4,1,0.749935600000754,1
15011,142,Larynx,Sham,Tone,Clear,36,2,0,0.568952100002207,1
15012,142,Larynx,Sham,Tone,Clear,37,3,0,0.9022146999996041,1
15013,142,Larynx,Sham,Tone,Clear,38,3,0,0.704153100003168,1
15014,142,Larynx,Sham,Tone,Clear,39,3,1,0.583991300001799,1
15015,142,Larynx,Sham,Tone,Clear,40,2,0,0.531860700000834,1
15016,142,Larynx,Sham,Tone,Clear,41,4,1,0.557287300001917,1
15017,142,Larynx,Sham,Tone,Clear,42,4,1,0.559631500000251,1
15018,142,Larynx,Sham,Tone,Clear,43,2,0,0.61000520000016,1
15019,142,Larynx,Sham,Tone,Clear,44,3,0,0.707400100000086,1
15020,142,Larynx,Sham,Tone,Clear,45,3,0,0.7043478000014151,1
15021,142,Larynx,Sham,Tone,Clear,46,1,0,0.814026199997897,1
15022,142,Larynx,Sham,Tone,Clear,47,4,1,0.665942499999801,1
15023,142,Larynx,Sham,Tone,Clear,48,3,1,0.861360400002013,1
15024,142,Larynx,Sham,Tone,Clear,49,2,0,1.0537690999990401,1
15025,142,Larynx,Sham,Tone,Clear,50,5,1,0.693134100001771,1
15026,142,Larynx,Sham,Tone,Clear,51,1,0,0.5647647000005239,1
15027,142,Larynx,Sham,Tone,Clear,52,5,1,0.767477499997767,1
15028,142,Larynx,Sham,Tone,Clear,53,4,1,0.85844139999972,1
15029,142,Larynx,Sham,Tone,Clear,54,3,0,0.620215499999176,1
15030,142,Larynx,Sham,Tone,Clear,55,1,0,0.608660900001269,1
15031,142,Larynx,Sham,Tone,Clear,56,5,1,0.6121327000000749,1
15032,142,Larynx,Sham,Tone,Clear,57,3,1,0.9635854000007379,1
15033,142,Larynx,Sham,Tone,Clear,58,4,1,0.5908930000005059,1
15034,142,Larynx,Sham,Tone,Clear,59,3,1,0.8547513000012259,1
15035,142,Larynx,Sham,Tone,Clear,60,2,0,0.666601799999626,1
15036,142,Larynx,Sham,Tone,Clear,61,3,1,0.7132375000001051,1
15037,142,Larynx,Sham,Tone,Clear,62,3,1,0.693375200000446,1
15038,142,Larynx,Sham,Tone,Clear,63,2,0,0.652589599998464,1
15039,142,Larynx,Sham,Tone,Clear,64,5,1,0.505249600002571,1
15040,142,Larynx,Sham,Tone,Clear,65,5,1,0.668856699998287,1
15041,142,Larynx,Sham,Tone,Clear,66,1,0,1.01711639999849,1
15042,142,Larynx,Sham,Tone,Clear,67,3,0,0.62037920000148,1
15043,142,Larynx,Sham,Tone,Clear,68,4,1,0.47998469999947707,1
15044,142,Larynx,Sham,Tone,Clear,69,2,0,0.7690017999993871,1
15045,142,Larynx,Sham,Tone,Clear,70,3,1,0.872353399998246,1
15046,142,Larynx,Sham,Tone,Clear,71,3,1,0.639430200000788,1
15047,142,Larynx,Sham,Tone,Clear,72,2,0,0.666951900002459,1
15048,142,Larynx,Sham,Tone,Clear,73,1,0,0.571693899997626,1
15049,142,Larynx,Sham,Tone,Clear,74,4,1,0.45514589999947896,1
15050,142,Larynx,Sham,Tone,Clear,75,5,1,0.5243818999988429,1
15051,142,Larynx,Sham,Tone,Clear,76,1,0,0.51521860000139,1
15052,142,Larynx,Sham,Tone,Clear,77,2,0,0.623258699997677,1
15053,142,Larynx,Sham,Tone,Clear,78,4,1,0.473383700002159,1
15054,142,Larynx,Sham,Tone,Clear,79,3,0,0.679572400000325,1
15055,142,Larynx,Sham,Tone,Clear,80,4,1,0.532841300002474,1
15056,142,Larynx,Sham,Tone,Clear,81,2,0,0.6036792000013521,1
15057,142,Larynx,Sham,Tone,Clear,82,1,0,0.688067700000829,1
15058,142,Larynx,Sham,Tone,Clear,83,1,0,0.6157725000011851,1
15059,142,Larynx,Sham,Tone,Clear,84,3,1,0.458898699998826,1
15060,142,Larynx,Sham,Tone,Clear,85,3,1,0.61453430000256,1
15061,142,Larynx,Sham,Tone,Clear,86,5,1,0.657674699999916,1
15062,142,Larynx,Sham,Tone,Clear,87,5,1,0.581027000000176,1
15063,142,Larynx,Sham,Tone,Clear,88,3,1,0.7146152999994231,1
15064,142,Larynx,Sham,Tone,Clear,89,3,1,0.72960779999994,1
15065,142,Larynx,Sham,Tone,Clear,90,3,1,0.7356418999988821,1
15066,142,Larynx,Sham,Tone,Clear,91,4,1,0.580538899997919,1
15067,142,Larynx,Sham,Tone,Clear,92,2,0,0.546563300002163,1
15068,142,Larynx,Sham,Tone,Clear,93,3,0,0.54187119999915,1
15069,142,Larynx,Sham,Tone,Clear,94,4,1,0.707200199998624,1
15070,142,Larynx,Sham,Tone,Clear,95,5,1,0.5851617999978771,1
15071,142,Larynx,Sham,Tone,Clear,96,4,1,0.564779799999087,1
15072,142,Larynx,Sham,Tone,Clear,97,5,1,0.567665200000192,1
15073,142,Larynx,Sham,Tone,Clear,98,3,1,0.812413699997705,1
15074,142,Larynx,Sham,Tone,Clear,99,2,1,0.528701699997328,1
15075,142,Larynx,Sham,Tone,Clear,100,3,1,0.8228591000006421,1
15076,142,Larynx,Sham,Tone,Clear,101,4,1,0.7377899000020991,1
15077,142,Larynx,Sham,Tone,Clear,102,1,0,0.466491200000746,1
15078,142,Larynx,Sham,Tone,Clear,103,1,0,0.533158400001412,1
15079,142,Larynx,Sham,Tone,Clear,104,2,1,0.644257799998741,1
15080,142,Larynx,Sham,Tone,Clear,105,2,0,0.71463379999841,1
15081,142,Larynx,Sham,Tone,Clear,106,5,1,0.578486999998859,1
15082,142,Larynx,Sham,Tone,Clear,107,4,1,0.518386700001429,1
15083,142,Larynx,Sham,Tone,Clear,108,2,0,0.6228504999999129,1
15084,142,Larynx,Sham,Tone,Clear,109,4,1,0.455499100000452,1
15085,142,Larynx,Sham,Tone,Clear,110,2,0,0.995764399998734,1
15086,142,Larynx,Sham,Tone,Clear,111,3,0,0.507828000001609,1
15087,142,Larynx,Sham,Tone,Clear,112,1,0,0.59986729999946,1
15088,142,Larynx,Sham,Tone,Clear,113,1,0,0.5471672999992729,1
15089,142,Larynx,Sham,Tone,Clear,114,3,1,0.6812492999997629,1
15090,142,Larynx,Sham,Tone,Clear,115,4,1,0.47473100000206603,1
15091,142,Larynx,Sham,Tone,Clear,116,2,0,0.6224579000008821,1
15092,142,Larynx,Sham,Tone,Clear,117,5,1,0.519211999999243,1
15093,142,Larynx,Sham,Tone,Clear,118,3,1,0.881771300002583,1
15094,142,Larynx,Sham,Tone,Clear,119,3,1,0.9627128000029191,1
15095,142,Larynx,Sham,Tone,Clear,120,2,0,0.48242329999993705,1
15096,142,Larynx,Sham,Tone,Clear,121,1,0,0.5088407999974149,1
15097,142,Larynx,Sham,Tone,Clear,122,3,1,0.608102900001541,1
15098,142,Larynx,Sham,Tone,Clear,123,3,1,0.7499115999999051,1
15099,142,Larynx,Sham,Tone,Clear,124,2,0,0.582231500000489,1
15100,142,Larynx,Sham,Tone,Clear,125,1,0,0.520295399997849,1
15101,142,Larynx,Sham,Tone,Clear,126,4,1,0.468881499997224,1
15102,142,Larynx,Sham,Tone,Clear,127,4,1,0.438388800001121,1
15103,142,Larynx,Sham,Tone,Clear,128,5,1,0.579004200000782,1
15104,142,Larynx,Sham,Tone,Clear,129,5,1,0.41856100000222796,1
15105,142,Larynx,Sham,Tone,Clear,130,5,1,0.43395629999940905,1
15106,142,Larynx,Sham,Tone,Clear,131,3,1,0.8176485000003589,1
15107,142,Larynx,Sham,Tone,Clear,132,1,0,0.522930600000109,1
15108,142,Larynx,Sham,Tone,Clear,133,1,0,0.5444588999998811,1
15109,142,Larynx,Sham,Tone,Clear,134,2,0,0.6002687000000151,1
15110,142,Larynx,Sham,Tone,Clear,135,2,1,0.768291800002771,1
15111,142,Larynx,Sham,Tone,Clear,136,2,0,0.611867199997505,1
15112,142,Larynx,Sham,Tone,Clear,137,5,1,0.472377900001447,1
15113,142,Larynx,Sham,Tone,Clear,138,5,1,0.43301400000200396,1
15114,142,Larynx,Sham,Tone,Clear,139,4,1,0.368925400001899,1
15115,142,Larynx,Sham,Tone,Clear,140,4,1,0.509214900001098,1
15116,142,Larynx,Sham,Tone,Clear,141,2,1,0.400075800000195,1
15117,142,Larynx,Sham,Tone,Clear,142,2,0,0.6285365999974599,1
15118,142,Larynx,Sham,Tone,Clear,143,4,1,0.675903000003018,1
15119,142,Larynx,Sham,Tone,Clear,144,5,1,0.676254400001199,1
15120,142,Larynx,Sham,Tone,Clear,145,3,0,0.8004701999998359,1
15121,142,Larynx,Sham,Tone,Clear,146,3,0,0.698065900000074,1
15122,142,Larynx,Sham,Tone,Clear,147,3,1,0.4078776000023939,1
15123,142,Larynx,Sham,Tone,Clear,148,3,1,0.7441371999993859,1
15124,142,Larynx,Sham,Tone,Clear,149,3,1,0.830113600000914,1
15125,142,Larynx,Sham,Tone,Clear,150,4,1,0.605691100001422,1
15126,142,Larynx,Sham,Tone,Clear,151,4,1,0.553839600001083,1
15127,142,Larynx,Sham,Tone,Clear,152,4,1,0.549799699998403,1
15128,142,Larynx,Sham,Tone,Clear,153,1,0,0.654564799999207,1
15129,142,Larynx,Sham,Tone,Clear,154,3,1,0.543077400001494,1
15130,142,Larynx,Sham,Tone,Clear,155,1,0,0.7954256000011809,1
15131,142,Larynx,Sham,Tone,Clear,156,2,0,0.6478581000010311,1
15600,201,Larynx,Left iTBS,Tone,Clear,1,3,1,1.4372759999823799,1
15601,201,Larynx,Left iTBS,Tone,Clear,2,4,1,0.644210200000089,1
15602,201,Larynx,Left iTBS,Tone,Clear,3,4,1,0.6269410999957471,1
15603,201,Larynx,Left iTBS,Tone,Clear,4,5,1,0.6323381999973211,1
15604,201,Larynx,Left iTBS,Tone,Clear,5,4,1,0.7644546999945309,1
15605,201,Larynx,Left iTBS,Tone,Clear,6,4,1,0.5190741000114939,1
15606,201,Larynx,Left iTBS,Tone,Clear,7,5,1,0.6126560000120661,1
15607,201,Larynx,Left iTBS,Tone,Clear,8,5,1,0.5290003999834879,1
15608,201,Larynx,Left iTBS,Tone,Clear,9,1,0,0.549161200004164,1
15609,201,Larynx,Left iTBS,Tone,Clear,10,3,0,0.937016200041398,1
15610,201,Larynx,Left iTBS,Tone,Clear,11,5,1,0.542670700000599,1
15611,201,Larynx,Left iTBS,Tone,Clear,12,2,0,0.621580399980303,1
15612,201,Larynx,Left iTBS,Tone,Clear,13,3,0,0.7313500000163909,1
15613,201,Larynx,Left iTBS,Tone,Clear,14,1,0,0.65930080000544,1
15614,201,Larynx,Left iTBS,Tone,Clear,15,1,0,0.5600288999849,1
15615,201,Larynx,Left iTBS,Tone,Clear,16,2,0,0.958749699988402,1
15616,201,Larynx,Left iTBS,Tone,Clear,17,3,1,0.7651042999932541,1
15617,201,Larynx,Left iTBS,Tone,Clear,18,1,0,0.543285400024615,1
15618,201,Larynx,Left iTBS,Tone,Clear,19,3,1,0.7109300000010991,1
15619,201,Larynx,Left iTBS,Tone,Clear,20,3,1,0.542462299985345,1
15620,201,Larynx,Left iTBS,Tone,Clear,21,3,1,0.523840299982112,1
15621,201,Larynx,Left iTBS,Tone,Clear,22,4,1,0.522634199995082,1
15622,201,Larynx,Left iTBS,Tone,Clear,23,4,1,0.435222400003113,1
15623,201,Larynx,Left iTBS,Tone,Clear,24,5,1,0.47703379997983597,1
15624,201,Larynx,Left iTBS,Tone,Clear,25,3,1,0.7467231000191529,1
15625,201,Larynx,Left iTBS,Tone,Clear,26,3,1,0.636343399994075,1
15626,201,Larynx,Left iTBS,Tone,Clear,27,3,1,0.642277899954934,1
15627,201,Larynx,Left iTBS,Tone,Clear,28,1,0,0.522395899984986,1
15628,201,Larynx,Left iTBS,Tone,Clear,29,4,1,0.510460399964359,1
15629,201,Larynx,Left iTBS,Tone,Clear,30,2,0,0.6839311000076121,1
15630,201,Larynx,Left iTBS,Tone,Clear,31,2,1,0.618324099981692,1
15631,201,Larynx,Left iTBS,Tone,Clear,32,3,1,0.58574300003238,1
15632,201,Larynx,Left iTBS,Tone,Clear,33,4,1,0.5693912000278941,1
15633,201,Larynx,Left iTBS,Tone,Clear,34,5,1,0.579014999966603,1
15634,201,Larynx,Left iTBS,Tone,Clear,35,2,0,0.6720801999908871,1
15635,201,Larynx,Left iTBS,Tone,Clear,36,2,0,0.5988372999709101,1
15636,201,Larynx,Left iTBS,Tone,Clear,37,2,0,0.5978795000119129,1
15637,201,Larynx,Left iTBS,Tone,Clear,38,1,0,0.592583600024227,1
15638,201,Larynx,Left iTBS,Tone,Clear,39,2,0,0.606531600002199,1
15639,201,Larynx,Left iTBS,Tone,Clear,40,4,1,0.5124289999948811,1
15640,201,Larynx,Left iTBS,Tone,Clear,41,3,1,0.7242542000021791,1
15641,201,Larynx,Left iTBS,Tone,Clear,42,4,1,0.5209381000022401,1
15642,201,Larynx,Left iTBS,Tone,Clear,43,1,0,0.523721900011878,1
15643,201,Larynx,Left iTBS,Tone,Clear,44,1,0,0.495880800008308,1
15644,201,Larynx,Left iTBS,Tone,Clear,45,2,0,0.611757000035141,1
15645,201,Larynx,Left iTBS,Tone,Clear,46,4,1,0.503968000004534,1
