,subj_idx,group_idx,turn_type,task_type,snr_type,trial_num,step_att,response,rt,step_unatnd
1248,55,Larynx,Right iTBS,Tone,Clear,1,3,1,2.19478329992853,1
1249,55,Larynx,Right iTBS,Tone,Clear,2,3,1,0.7500703999539841,1
1250,55,Larynx,Right iTBS,Tone,Clear,3,1,0,0.548154799966142,1
1251,55,Larynx,Right iTBS,Tone,Clear,4,2,0,1.06250899995212,1
1252,55,Larynx,Right iTBS,Tone,Clear,5,4,1,0.5791855000425129,1
1253,55,Larynx,Right iTBS,Tone,Clear,6,2,0,0.5990407000062989,1
1254,55,Larynx,Right iTBS,Tone,Clear,7,1,0,0.667901300010271,1
1255,55,Larynx,Right iTBS,Tone,Clear,8,5,1,0.580284300027415,1
1256,55,Larynx,Right iTBS,Tone,Clear,9,4,1,0.5294621000066401,1
1257,55,Larynx,Right iTBS,Tone,Clear,10,2,0,0.6426686999620871,1
1258,55,Larynx,Right iTBS,Tone,Clear,11,1,0,1.09332560002804,1
1259,55,Larynx,Right iTBS,Tone,Clear,12,1,0,0.6062559999991209,1
1260,55,Larynx,Right iTBS,Tone,Clear,13,4,1,0.49435439996887,1
1261,55,Larynx,Right iTBS,Tone,Clear,14,3,1,0.753465699963272,1
1262,55,Larynx,Right iTBS,Tone,Clear,15,3,1,0.566129599930719,1
1263,55,Larynx,Right iTBS,Tone,Clear,16,5,1,0.595347000053152,1
1264,55,Larynx,Right iTBS,Tone,Clear,17,4,1,0.5862334999255839,1
1265,55,Larynx,Right iTBS,Tone,Clear,18,2,0,0.6403843999141831,1
1266,55,Larynx,Right iTBS,Tone,Clear,19,2,0,0.967276999959722,1
1267,55,Larynx,Right iTBS,Tone,Clear,20,4,1,0.662372100050561,1
1268,55,Larynx,Right iTBS,Tone,Clear,21,2,1,0.8649278000229971,1
1269,55,Larynx,Right iTBS,Tone,Clear,22,3,1,1.5328742000274398,1
1270,55,Larynx,Right iTBS,Tone,Clear,23,5,1,0.6361549999564889,1
1271,55,Larynx,Right iTBS,Tone,Clear,24,1,0,0.469236599979922,1
1272,55,Larynx,Right iTBS,Tone,Clear,25,1,0,0.645017799921334,1
1273,55,Larynx,Right iTBS,Tone,Clear,26,3,1,0.6622754000127321,1
1274,55,Larynx,Right iTBS,Tone,Clear,27,3,1,0.5650056999875229,1
1275,55,Larynx,Right iTBS,Tone,Clear,28,5,1,1.00622780004051,1
1276,55,Larynx,Right iTBS,Tone,Clear,29,4,1,0.5802067000186071,1
1277,55,Larynx,Right iTBS,Tone,Clear,30,2,0,1.8531134000513703,1
1278,55,Larynx,Right iTBS,Tone,Clear,31,3,1,1.1082838999573101,1
1279,55,Larynx,Right iTBS,Tone,Clear,32,4,1,0.6278956999303771,1
1280,55,Larynx,Right iTBS,Tone,Clear,33,3,1,0.6321809999644761,1
1281,55,Larynx,Right iTBS,Tone,Clear,34,3,1,0.6861849999986589,1
1282,55,Larynx,Right iTBS,Tone,Clear,35,2,0,0.5142409000545739,1
1283,55,Larynx,Right iTBS,Tone,Clear,36,5,1,0.54759600001853,1
1284,55,Larynx,Right iTBS,Tone,Clear,37,5,1,0.557954999967478,1
1285,55,Larynx,Right iTBS,Tone,Clear,38,4,1,0.5518115999875589,1
1286,55,Larynx,Right iTBS,Tone,Clear,39,3,1,0.775724299950525,1
1287,55,Larynx,Right iTBS,Tone,Clear,40,2,0,0.528190099983476,1
1288,55,Larynx,Right iTBS,Tone,Clear,41,3,1,0.6704715000232679,1
1289,55,Larynx,Right iTBS,Tone,Clear,42,3,1,0.685144199989736,1
1290,55,Larynx,Right iTBS,Tone,Clear,43,5,1,0.743757399963215,1
1291,55,Larynx,Right iTBS,Tone,Clear,44,1,0,0.594033499946818,1
1292,55,Larynx,Right iTBS,Tone,Clear,45,2,0,0.7310476999264209,1
1293,55,Larynx,Right iTBS,Tone,Clear,46,2,0,0.655216199927963,1
1294,55,Larynx,Right iTBS,Tone,Clear,47,5,1,0.7352599001023922,1
1295,55,Larynx,Right iTBS,Tone,Clear,48,4,1,0.686495900037698,1
1296,55,Larynx,Right iTBS,Tone,Clear,49,3,1,0.588309000013396,1
1297,55,Larynx,Right iTBS,Tone,Clear,50,3,1,0.9346752000274141,1
1298,55,Larynx,Right iTBS,Tone,Clear,51,2,0,2.02138200006448,1
1299,55,Larynx,Right iTBS,Tone,Clear,52,1,0,0.629489699960686,1
1300,55,Larynx,Right iTBS,Tone,Clear,53,4,1,0.687157100066543,1
1301,55,Larynx,Right iTBS,Tone,Clear,54,1,0,0.67983329994604,1
1302,55,Larynx,Right iTBS,Tone,Clear,55,3,1,0.594734699930996,1
1303,55,Larynx,Right iTBS,Tone,Clear,56,4,1,0.639771900023334,1
1304,55,Larynx,Right iTBS,Tone,Clear,57,5,1,0.6210309999296441,1
1305,55,Larynx,Right iTBS,Tone,Clear,58,3,1,0.0008934999350458381,1
1306,55,Larynx,Right iTBS,Tone,Clear,59,3,1,1.3561283999588303,1
1307,55,Larynx,Right iTBS,Tone,Clear,60,2,0,0.93901360000018,1
1308,55,Larynx,Right iTBS,Tone,Clear,61,4,1,0.5581024000421171,1
1309,55,Larynx,Right iTBS,Tone,Clear,62,3,1,0.607524699997157,1
1310,55,Larynx,Right iTBS,Tone,Clear,63,4,1,0.6262773999478671,1
1311,55,Larynx,Right iTBS,Tone,Clear,64,3,1,0.698838800075464,1
1312,55,Larynx,Right iTBS,Tone,Clear,65,2,0,0.5641696000238879,1
1313,55,Larynx,Right iTBS,Tone,Clear,66,5,1,0.5475387999322271,1
1314,55,Larynx,Right iTBS,Tone,Clear,67,2,0,0.584993500029668,1
1315,55,Larynx,Right iTBS,Tone,Clear,68,3,1,1.14501770003699,1
1316,55,Larynx,Right iTBS,Tone,Clear,69,4,1,0.6632784999674189,1
1317,55,Larynx,Right iTBS,Tone,Clear,70,1,0,0.6402594000101091,1
1318,55,Larynx,Right iTBS,Tone,Clear,71,4,1,0.5223765999544411,1
1319,55,Larynx,Right iTBS,Tone,Clear,72,4,1,0.7037792999763041,1
1320,55,Larynx,Right iTBS,Tone,Clear,73,3,1,0.937531600007787,1
1321,55,Larynx,Right iTBS,Tone,Clear,74,5,1,0.7018225999781861,1
1322,55,Larynx,Right iTBS,Tone,Clear,75,2,0,0.541235800017603,1
1323,55,Larynx,Right iTBS,Tone,Clear,76,1,0,0.556912000058219,1
1324,55,Larynx,Right iTBS,Tone,Clear,77,1,0,0.5906400000676509,1
1325,55,Larynx,Right iTBS,Tone,Clear,78,5,1,0.682638700003736,1
1326,55,Larynx,Right iTBS,Tone,Clear,79,4,1,0.592747699934989,1
1327,55,Larynx,Right iTBS,Tone,Clear,80,2,1,1.5796822999836901,1
1328,55,Larynx,Right iTBS,Tone,Clear,81,2,0,0.666304100072011,1
1329,55,Larynx,Right iTBS,Tone,Clear,82,5,1,0.637110400013626,1
1330,55,Larynx,Right iTBS,Tone,Clear,83,5,1,0.642765299999155,1
1331,55,Larynx,Right iTBS,Tone,Clear,84,3,1,1.15476629999466,1
1332,55,Larynx,Right iTBS,Tone,Clear,85,2,0,0.7787641999311751,1
1333,55,Larynx,Right iTBS,Tone,Clear,86,5,1,0.72354949999135,1
1334,55,Larynx,Right iTBS,Tone,Clear,87,3,1,0.906737699988298,1
1335,55,Larynx,Right iTBS,Tone,Clear,88,2,0,0.627097300020978,1
1336,55,Larynx,Right iTBS,Tone,Clear,89,4,1,0.624635800020769,1
1337,55,Larynx,Right iTBS,Tone,Clear,90,4,1,0.6875923000043261,1
1338,55,Larynx,Right iTBS,Tone,Clear,91,3,1,1.04350190004334,1
1339,55,Larynx,Right iTBS,Tone,Clear,92,4,1,0.615786300040782,1
1340,55,Larynx,Right iTBS,Tone,Clear,93,4,1,1.1098719000583501,1
1341,55,Larynx,Right iTBS,Tone,Clear,94,5,1,0.636843099957332,1
1342,55,Larynx,Right iTBS,Tone,Clear,95,2,0,0.55938920006156,1
1343,55,Larynx,Right iTBS,Tone,Clear,96,1,0,0.5813932999735699,1
1344,55,Larynx,Right iTBS,Tone,Clear,97,3,1,0.6696958000538871,1
1345,55,Larynx,Right iTBS,Tone,Clear,98,3,1,0.7916411999613051,1
1346,55,Larynx,Right iTBS,Tone,Clear,99,4,1,0.63595779996831,1
1347,55,Larynx,Right iTBS,Tone,Clear,100,1,0,0.575103499926627,1
1348,55,Larynx,Right iTBS,Tone,Clear,101,5,1,0.807896799989976,1
1349,55,Larynx,Right iTBS,Tone,Clear,102,3,1,0.881419299985282,1
1350,55,Larynx,Right iTBS,Tone,Clear,103,1,0,0.589122700039297,1
1351,55,Larynx,Right iTBS,Tone,Clear,104,3,1,1.02913309994619,1
1352,55,Larynx,Right iTBS,Tone,Clear,105,1,0,0.519908000016585,1
1353,55,Larynx,Right iTBS,Tone,Clear,106,3,1,1.63032130000647,1
1354,55,Larynx,Right iTBS,Tone,Clear,107,1,0,0.63853170000948,1
1355,55,Larynx,Right iTBS,Tone,Clear,108,2,0,1.13226310000755,1
1356,55,Larynx,Right iTBS,Tone,Clear,109,2,0,0.592059600050561,1
1357,55,Larynx,Right iTBS,Tone,Clear,110,5,1,0.608934400021099,1
1358,55,Larynx,Right iTBS,Tone,Clear,111,3,1,0.7529550000326709,1
1359,55,Larynx,Right iTBS,Tone,Clear,112,4,1,0.654770400025882,1
1360,55,Larynx,Right iTBS,Tone,Clear,113,1,0,0.536660699988715,1
1361,55,Larynx,Right iTBS,Tone,Clear,114,3,1,1.2172345999861103,1
1362,55,Larynx,Right iTBS,Tone,Clear,115,3,1,0.6828812999883671,1
1363,55,Larynx,Right iTBS,Tone,Clear,116,2,1,1.4486633000196898,1
1364,55,Larynx,Right iTBS,Tone,Clear,117,4,1,1.53134590003174,1
1365,55,Larynx,Right iTBS,Tone,Clear,118,5,1,0.682431499939412,1
1366,55,Larynx,Right iTBS,Tone,Clear,119,2,0,0.5839053000090639,1
1367,55,Larynx,Right iTBS,Tone,Clear,120,3,0,1.41070850007236,1
1368,55,Larynx,Right iTBS,Tone,Clear,121,2,0,0.608908800058998,1
1369,55,Larynx,Right iTBS,Tone,Clear,122,2,0,0.869585899985395,1
1370,55,Larynx,Right iTBS,Tone,Clear,123,3,1,0.6907785999355839,1
1371,55,Larynx,Right iTBS,Tone,Clear,124,3,1,0.662315099965781,1
1372,55,Larynx,Right iTBS,Tone,Clear,125,4,1,0.636654900037684,1
1373,55,Larynx,Right iTBS,Tone,Clear,126,5,1,1.1665714000118899,1
1374,55,Larynx,Right iTBS,Tone,Clear,127,4,1,0.8018798000412058,1
1375,55,Larynx,Right iTBS,Tone,Clear,128,5,1,0.7526193999219691,1
1376,55,Larynx,Right iTBS,Tone,Clear,129,1,0,0.567285500001162,1
1377,55,Larynx,Right iTBS,Tone,Clear,130,1,0,0.577052399981767,1
1378,55,Larynx,Right iTBS,Tone,Clear,131,4,1,0.5897726999828591,1
1379,55,Larynx,Right iTBS,Tone,Clear,132,2,0,0.527118299971335,1
1380,55,Larynx,Right iTBS,Tone,Clear,133,3,1,0.8391228000400591,1
1381,55,Larynx,Right iTBS,Tone,Clear,134,5,1,0.644919799990021,1
1382,55,Larynx,Right iTBS,Tone,Clear,135,4,1,0.522071199957281,1
1383,55,Larynx,Right iTBS,Tone,Clear,136,3,1,0.765899499994703,1
1384,55,Larynx,Right iTBS,Tone,Clear,137,3,1,0.664037400041707,1
1385,55,Larynx,Right iTBS,Tone,Clear,138,3,1,1.2423320999368999,1
1386,55,Larynx,Right iTBS,Tone,Clear,139,3,1,1.20610700000543,1
1387,55,Larynx,Right iTBS,Tone,Clear,140,2,0,0.535312399966642,1
1388,55,Larynx,Right iTBS,Tone,Clear,141,2,0,0.604057600023225,1
1389,55,Larynx,Right iTBS,Tone,Clear,142,1,0,0.535007099970244,1
1390,55,Larynx,Right iTBS,Tone,Clear,143,3,1,0.80047460005153,1
1391,55,Larynx,Right iTBS,Tone,Clear,144,4,1,0.6863216999918221,1
1392,55,Larynx,Right iTBS,Tone,Clear,145,5,1,0.657194299972616,1
1393,55,Larynx,Right iTBS,Tone,Clear,146,1,0,0.567267999984324,1
1394,55,Larynx,Right iTBS,Tone,Clear,147,2,0,1.15123299998231,1
1395,55,Larynx,Right iTBS,Tone,Clear,148,2,0,0.532154900021851,1
1396,55,Larynx,Right iTBS,Tone,Clear,149,4,1,0.729892199975438,1
1397,55,Larynx,Right iTBS,Tone,Clear,150,1,0,0.567500100005418,1
1398,55,Larynx,Right iTBS,Tone,Clear,151,3,0,0.8833722999552259,1
1399,55,Larynx,Right iTBS,Tone,Clear,152,4,1,0.920032200054266,1
1400,55,Larynx,Right iTBS,Tone,Clear,153,4,1,0.607598599977791,1
1401,55,Larynx,Right iTBS,Tone,Clear,154,3,1,0.813171699992381,1
1402,55,Larynx,Right iTBS,Tone,Clear,155,1,0,0.5856424999656159,1
1403,55,Larynx,Right iTBS,Tone,Clear,156,5,1,0.646035699988715,1
2496,55,Larynx,Sham,Tone,Clear,1,3,1,1.16881900001317,1
2497,55,Larynx,Sham,Tone,Clear,2,3,1,0.6229444000637161,1
2498,55,Larynx,Sham,Tone,Clear,3,5,1,0.5427850000560279,1
2499,55,Larynx,Sham,Tone,Clear,4,1,0,0.521256300038658,1
2500,55,Larynx,Sham,Tone,Clear,5,2,0,1.0965779999969498,1
2501,55,Larynx,Sham,Tone,Clear,6,3,1,0.7118821999756619,1
2502,55,Larynx,Sham,Tone,Clear,7,2,1,1.24664759996813,1
2503,55,Larynx,Sham,Tone,Clear,8,2,1,0.6426535999635229,1
2504,55,Larynx,Sham,Tone,Clear,9,5,1,0.603717499994673,1
2505,55,Larynx,Sham,Tone,Clear,10,4,1,0.5435097999870779,1
2506,55,Larynx,Sham,Tone,Clear,11,5,1,0.876524100080132,1
2507,55,Larynx,Sham,Tone,Clear,12,1,0,0.6741131999297071,1
2508,55,Larynx,Sham,Tone,Clear,13,1,0,0.574243400013074,1
2509,55,Larynx,Sham,Tone,Clear,14,4,1,0.5846750000491739,1
2510,55,Larynx,Sham,Tone,Clear,15,5,1,1.0364407999440999,1
2511,55,Larynx,Sham,Tone,Clear,16,2,1,2.95307950000279,1
2512,55,Larynx,Sham,Tone,Clear,17,4,1,0.711600700044073,1
2513,55,Larynx,Sham,Tone,Clear,18,4,1,1.07111579994671,1
2514,55,Larynx,Sham,Tone,Clear,19,3,1,0.56396209995728,1
2515,55,Larynx,Sham,Tone,Clear,20,3,1,0.515576799982227,1
2516,55,Larynx,Sham,Tone,Clear,21,2,1,2.68179109995253,1
2517,55,Larynx,Sham,Tone,Clear,22,1,0,0.639202299993485,1
2518,55,Larynx,Sham,Tone,Clear,23,4,1,0.691141200019047,1
2519,55,Larynx,Sham,Tone,Clear,24,3,1,0.8956523000961171,1
2520,55,Larynx,Sham,Tone,Clear,25,3,1,0.6435827999375761,1
2521,55,Larynx,Sham,Tone,Clear,26,3,1,0.883813200052828,1
2522,55,Larynx,Sham,Tone,Clear,27,1,0,0.6890199999324979,1
2523,55,Larynx,Sham,Tone,Clear,28,5,1,0.664948099991307,1
2524,55,Larynx,Sham,Tone,Clear,29,2,0,2.2324013999896097,1
2525,55,Larynx,Sham,Tone,Clear,30,4,1,1.25563159992453,1
2526,55,Larynx,Sham,Tone,Clear,31,2,0,0.669360700063407,1
2527,55,Larynx,Sham,Tone,Clear,32,3,1,1.1706902999430902,1
2528,55,Larynx,Sham,Tone,Clear,33,3,1,0.8368011000566179,1
2529,55,Larynx,Sham,Tone,Clear,34,2,1,1.86905669991393,1
2530,55,Larynx,Sham,Tone,Clear,35,4,1,0.644219999900088,1
2531,55,Larynx,Sham,Tone,Clear,36,3,1,0.927137000020593,1
2532,55,Larynx,Sham,Tone,Clear,37,5,1,0.693377599935047,1
2533,55,Larynx,Sham,Tone,Clear,38,1,0,0.56275669997558,1
2534,55,Larynx,Sham,Tone,Clear,39,4,1,0.923118100035936,1
2535,55,Larynx,Sham,Tone,Clear,40,5,1,0.610601200023666,1
2536,55,Larynx,Sham,Tone,Clear,41,3,1,0.713091999990866,1
2537,55,Larynx,Sham,Tone,Clear,42,3,1,0.7634973999811341,1
2538,55,Larynx,Sham,Tone,Clear,43,4,1,0.720973399933428,1
2539,55,Larynx,Sham,Tone,Clear,44,3,1,0.793034699978307,1
2540,55,Larynx,Sham,Tone,Clear,45,4,1,1.46119459997863,1
2541,55,Larynx,Sham,Tone,Clear,46,1,0,0.648440200020559,1
2542,55,Larynx,Sham,Tone,Clear,47,3,1,1.20539150002878,1
2543,55,Larynx,Sham,Tone,Clear,48,2,0,1.29794419999234,1
2544,55,Larynx,Sham,Tone,Clear,49,1,0,0.8098574000177909,1
2545,55,Larynx,Sham,Tone,Clear,50,4,1,0.651255900040269,1
2546,55,Larynx,Sham,Tone,Clear,51,3,1,0.8636850999901071,1
2547,55,Larynx,Sham,Tone,Clear,52,3,1,1.59669440006837,1
2548,55,Larynx,Sham,Tone,Clear,53,1,0,0.637204200029373,1
2549,55,Larynx,Sham,Tone,Clear,54,5,1,0.730239399941638,1
2550,55,Larynx,Sham,Tone,Clear,55,2,1,0.75552120001521,1
2551,55,Larynx,Sham,Tone,Clear,56,1,0,0.8031847000820559,1
2552,55,Larynx,Sham,Tone,Clear,57,4,1,0.61292730004061,1
2553,55,Larynx,Sham,Tone,Clear,58,4,1,0.604926100000739,1
2554,55,Larynx,Sham,Tone,Clear,59,2,1,0.93306810001377,1
2555,55,Larynx,Sham,Tone,Clear,60,2,0,1.85759089991916,1
2556,55,Larynx,Sham,Tone,Clear,61,4,1,1.5799775000196001,1
2557,55,Larynx,Sham,Tone,Clear,62,3,1,0.6203653999837121,1
2558,55,Larynx,Sham,Tone,Clear,63,2,0,0.983969600056298,1
2559,55,Larynx,Sham,Tone,Clear,64,3,1,1.76361569995061,1
2560,55,Larynx,Sham,Tone,Clear,65,3,1,0.7866274999687449,1
2561,55,Larynx,Sham,Tone,Clear,66,5,1,0.684473900008015,1
2562,55,Larynx,Sham,Tone,Clear,67,2,0,2.7728070999728502,1
2563,55,Larynx,Sham,Tone,Clear,68,2,0,1.01113899995107,1
2564,55,Larynx,Sham,Tone,Clear,69,4,1,0.584203100064769,1
2565,55,Larynx,Sham,Tone,Clear,70,5,1,0.507637600065209,1
2566,55,Larynx,Sham,Tone,Clear,71,1,0,0.595189100014977,1
2567,55,Larynx,Sham,Tone,Clear,72,5,1,0.706576099968515,1
2568,55,Larynx,Sham,Tone,Clear,73,1,0,0.570827799965627,1
2569,55,Larynx,Sham,Tone,Clear,74,4,1,0.8997565000317991,1
2570,55,Larynx,Sham,Tone,Clear,75,3,1,0.8135910000419241,1
2571,55,Larynx,Sham,Tone,Clear,76,2,0,2.0464467999991,1
2572,55,Larynx,Sham,Tone,Clear,77,3,1,0.8287455000681802,1
2573,55,Larynx,Sham,Tone,Clear,78,5,1,0.691364800091833,1
2574,55,Larynx,Sham,Tone,Clear,79,4,1,0.56891499995254,1
2575,55,Larynx,Sham,Tone,Clear,80,5,1,1.1224273000843799,1
2576,55,Larynx,Sham,Tone,Clear,81,2,0,1.4627089999848997,1
2577,55,Larynx,Sham,Tone,Clear,82,3,0,2.78116520005278,1
2578,55,Larynx,Sham,Tone,Clear,83,4,1,1.13467719999608,1
2579,55,Larynx,Sham,Tone,Clear,84,4,1,1.21983129996806,1
2580,55,Larynx,Sham,Tone,Clear,85,2,1,1.05313190002926,1
2581,55,Larynx,Sham,Tone,Clear,86,2,1,0.6470536999404429,1
2582,55,Larynx,Sham,Tone,Clear,87,3,1,0.703610799973831,1
2583,55,Larynx,Sham,Tone,Clear,88,5,1,0.622508800006472,1
2584,55,Larynx,Sham,Tone,Clear,89,1,0,0.539680799935013,1
2585,55,Larynx,Sham,Tone,Clear,90,4,1,0.630617000046186,1
2586,55,Larynx,Sham,Tone,Clear,91,3,1,0.682136000017636,1
2587,55,Larynx,Sham,Tone,Clear,92,1,0,0.5421453000744799,1
2588,55,Larynx,Sham,Tone,Clear,93,3,1,0.6444041000213471,1
2589,55,Larynx,Sham,Tone,Clear,94,3,1,0.61515500000678,1
2590,55,Larynx,Sham,Tone,Clear,95,1,0,0.54343910003081,1
2591,55,Larynx,Sham,Tone,Clear,96,2,0,1.04370010003913,1
2592,55,Larynx,Sham,Tone,Clear,97,5,1,0.759939100011252,1
2593,55,Larynx,Sham,Tone,Clear,98,5,1,0.5216468999860809,1
2594,55,Larynx,Sham,Tone,Clear,99,4,1,0.773355499957688,1
2595,55,Larynx,Sham,Tone,Clear,100,3,1,0.621327699976973,1
2596,55,Larynx,Sham,Tone,Clear,101,3,1,0.7802087999880309,1
2597,55,Larynx,Sham,Tone,Clear,102,5,1,0.616277400054969,1
2598,55,Larynx,Sham,Tone,Clear,103,4,1,0.665646699955687,1
2599,55,Larynx,Sham,Tone,Clear,104,3,1,0.6320730999577789,1
2600,55,Larynx,Sham,Tone,Clear,105,2,0,0.961536300019361,1
2601,55,Larynx,Sham,Tone,Clear,106,4,1,0.69562550005503,1
2602,55,Larynx,Sham,Tone,Clear,107,1,0,0.6597559000365439,1
2603,55,Larynx,Sham,Tone,Clear,108,1,0,0.6577935999957839,1
2604,55,Larynx,Sham,Tone,Clear,109,3,1,0.812088100006804,1
2605,55,Larynx,Sham,Tone,Clear,110,2,0,0.661941000027582,1
2606,55,Larynx,Sham,Tone,Clear,111,1,0,1.06566009996459,1
2607,55,Larynx,Sham,Tone,Clear,112,5,1,0.58662329998333,1
2608,55,Larynx,Sham,Tone,Clear,113,2,0,0.667902999906801,1
2609,55,Larynx,Sham,Tone,Clear,114,4,1,1.22181979997549,1
2610,55,Larynx,Sham,Tone,Clear,115,3,1,0.912234100047499,1
2611,55,Larynx,Sham,Tone,Clear,116,3,1,0.715524800005369,1
2612,55,Larynx,Sham,Tone,Clear,117,2,0,0.565462099970318,1
2613,55,Larynx,Sham,Tone,Clear,118,1,0,0.53840710001532,1
2614,55,Larynx,Sham,Tone,Clear,119,4,1,0.515047600027174,1
2615,55,Larynx,Sham,Tone,Clear,120,4,1,2.26357510010712,1
2616,55,Larynx,Sham,Tone,Clear,121,2,1,1.31948270008434,1
2617,55,Larynx,Sham,Tone,Clear,122,1,1,1.31763710000087,1
2618,55,Larynx,Sham,Tone,Clear,123,2,1,1.99861399992369,1
2619,55,Larynx,Sham,Tone,Clear,124,5,1,0.6650852999882769,1
2620,55,Larynx,Sham,Tone,Clear,125,4,1,0.641834700014442,1
2621,55,Larynx,Sham,Tone,Clear,126,2,0,0.598786500049755,1
2622,55,Larynx,Sham,Tone,Clear,127,3,1,0.7919549000216651,1
2623,55,Larynx,Sham,Tone,Clear,128,4,1,0.578907700022683,1
2624,55,Larynx,Sham,Tone,Clear,129,3,1,1.05117230000906,1
2625,55,Larynx,Sham,Tone,Clear,130,1,0,0.6718397999648,1
2626,55,Larynx,Sham,Tone,Clear,131,2,0,0.8410573999863119,1
2627,55,Larynx,Sham,Tone,Clear,132,1,0,0.6992438999004661,1
2628,55,Larynx,Sham,Tone,Clear,133,3,1,0.982154399971478,1
2629,55,Larynx,Sham,Tone,Clear,134,4,1,0.6586527000181379,1
2630,55,Larynx,Sham,Tone,Clear,135,3,1,0.500173399923369,1
2631,55,Larynx,Sham,Tone,Clear,136,3,1,0.508990100002848,1
2632,55,Larynx,Sham,Tone,Clear,137,5,1,0.5394506000448019,1
2633,55,Larynx,Sham,Tone,Clear,138,2,0,0.615517399972305,1
2634,55,Larynx,Sham,Tone,Clear,139,3,1,0.62746990006417,1
2635,55,Larynx,Sham,Tone,Clear,140,2,1,0.6874280999181789,1
2636,55,Larynx,Sham,Tone,Clear,141,5,1,0.547228300012648,1
2637,55,Larynx,Sham,Tone,Clear,142,3,1,0.592347800033167,1
2638,55,Larynx,Sham,Tone,Clear,143,5,1,0.577419799985364,1
2639,55,Larynx,Sham,Tone,Clear,144,2,0,0.625134599977173,1
2640,55,Larynx,Sham,Tone,Clear,145,3,1,0.8758702999912199,1
2641,55,Larynx,Sham,Tone,Clear,146,1,0,0.601128799957223,1
2642,55,Larynx,Sham,Tone,Clear,147,3,1,0.6567192999646071,1
2643,55,Larynx,Sham,Tone,Clear,148,4,1,0.6903470000252131,1
2644,55,Larynx,Sham,Tone,Clear,149,4,1,0.938723100000061,1
2645,55,Larynx,Sham,Tone,Clear,150,2,0,0.594424999901094,1
2646,55,Larynx,Sham,Tone,Clear,151,5,1,0.871214700047858,1
2647,55,Larynx,Sham,Tone,Clear,152,3,1,0.628024899982847,1
2648,55,Larynx,Sham,Tone,Clear,153,3,1,0.678541900007986,1
2649,55,Larynx,Sham,Tone,Clear,154,5,1,0.699947100016288,1
2650,55,Larynx,Sham,Tone,Clear,155,4,1,1.39651340001728,1
2651,55,Larynx,Sham,Tone,Clear,156,1,0,0.5856899999780579,1
4368,104,Larynx,Right iTBS,Tone,Clear,1,4,0,0.502100300043821,1
4369,104,Larynx,Right iTBS,Tone,Clear,2,2,0,0.7994647000450641,1
4370,104,Larynx,Right iTBS,Tone,Clear,3,2,0,0.494192300015129,1
4371,104,Larynx,Right iTBS,Tone,Clear,4,3,1,0.44385500007774703,1
4372,104,Larynx,Right iTBS,Tone,Clear,5,3,1,0.568657300085761,1
4373,104,Larynx,Right iTBS,Tone,Clear,6,3,1,0.380278500029817,1
4374,104,Larynx,Right iTBS,Tone,Clear,7,4,1,0.4129591999808329,1
4375,104,Larynx,Right iTBS,Tone,Clear,8,1,0,0.506749799940735,1
4376,104,Larynx,Right iTBS,Tone,Clear,9,1,1,0.508427100023255,1
4377,104,Larynx,Right iTBS,Tone,Clear,10,2,0,0.629907399998046,1
4378,104,Larynx,Right iTBS,Tone,Clear,11,2,1,0.684806999983266,1
4379,104,Larynx,Right iTBS,Tone,Clear,12,4,1,0.481724899960682,1
4380,104,Larynx,Right iTBS,Tone,Clear,13,5,1,0.42441570002120005,1
4381,104,Larynx,Right iTBS,Tone,Clear,14,5,1,0.4731509999837729,1
4382,104,Larynx,Right iTBS,Tone,Clear,15,3,0,0.43406339990906395,1
4383,104,Larynx,Right iTBS,Tone,Clear,16,2,0,0.547716400003992,1
4384,104,Larynx,Right iTBS,Tone,Clear,17,4,1,0.44635029998607895,1
4385,104,Larynx,Right iTBS,Tone,Clear,18,1,0,0.5137135999975729,1
4386,104,Larynx,Right iTBS,Tone,Clear,19,1,0,0.594482200103812,1
4387,104,Larynx,Right iTBS,Tone,Clear,20,3,1,0.414313499932177,1
4388,104,Larynx,Right iTBS,Tone,Clear,21,3,1,0.427588299964555,1
4389,104,Larynx,Right iTBS,Tone,Clear,22,2,1,0.540662000072189,1
4390,104,Larynx,Right iTBS,Tone,Clear,23,5,1,0.5043895000126211,1
4391,104,Larynx,Right iTBS,Tone,Clear,24,4,1,0.55022520001512,1
4392,104,Larynx,Right iTBS,Tone,Clear,25,5,1,0.510116199962795,1
4393,104,Larynx,Right iTBS,Tone,Clear,26,3,0,0.42470640002284205,1
4394,104,Larynx,Right iTBS,Tone,Clear,27,4,0,0.6235308999894189,1
4395,104,Larynx,Right iTBS,Tone,Clear,28,3,0,0.61291969998274,1
4396,104,Larynx,Right iTBS,Tone,Clear,29,1,0,0.620146499946713,1
4397,104,Larynx,Right iTBS,Tone,Clear,30,5,1,0.392034899909049,1
4398,104,Larynx,Right iTBS,Tone,Clear,31,1,0,0.482208400033414,1
4399,104,Larynx,Right iTBS,Tone,Clear,32,3,1,0.387094200006686,1
4400,104,Larynx,Right iTBS,Tone,Clear,33,5,1,0.453122599981725,1
4401,104,Larynx,Right iTBS,Tone,Clear,34,3,1,0.467953899991699,1
4402,104,Larynx,Right iTBS,Tone,Clear,35,3,1,0.3765698000788689,1
4403,104,Larynx,Right iTBS,Tone,Clear,36,2,1,0.418137099943124,1
4404,104,Larynx,Right iTBS,Tone,Clear,37,4,1,0.508021600078791,1
4405,104,Larynx,Right iTBS,Tone,Clear,38,2,0,0.642941799946129,1
4406,104,Larynx,Right iTBS,Tone,Clear,39,4,1,0.43161520001012804,1
4407,104,Larynx,Right iTBS,Tone,Clear,40,2,0,0.5883983001112939,1
4408,104,Larynx,Right iTBS,Tone,Clear,41,3,1,0.41083539999090096,1
4409,104,Larynx,Right iTBS,Tone,Clear,42,5,1,0.6505733000813051,1
4410,104,Larynx,Right iTBS,Tone,Clear,43,4,1,0.5159721999662,1
4411,104,Larynx,Right iTBS,Tone,Clear,44,1,0,0.508089000009932,1
4412,104,Larynx,Right iTBS,Tone,Clear,45,2,1,0.441817599930801,1
4413,104,Larynx,Right iTBS,Tone,Clear,46,5,1,0.491486600018106,1
4414,104,Larynx,Right iTBS,Tone,Clear,47,1,0,0.526229199953377,1
4415,104,Larynx,Right iTBS,Tone,Clear,48,3,1,0.564511099946685,1
4416,104,Larynx,Right iTBS,Tone,Clear,49,1,0,0.48238820000551597,1
4417,104,Larynx,Right iTBS,Tone,Clear,50,3,0,0.535988999996334,1
4418,104,Larynx,Right iTBS,Tone,Clear,51,1,0,0.5899590000044549,1
4419,104,Larynx,Right iTBS,Tone,Clear,52,4,1,0.574404300074093,1
4420,104,Larynx,Right iTBS,Tone,Clear,53,5,1,0.43140150001272604,1
4421,104,Larynx,Right iTBS,Tone,Clear,54,4,1,0.51547159999609,1
4422,104,Larynx,Right iTBS,Tone,Clear,55,4,1,0.46276799996849105,1
4423,104,Larynx,Right iTBS,Tone,Clear,56,5,1,0.584937500068918,1
4424,104,Larynx,Right iTBS,Tone,Clear,57,2,0,0.428455699933693,1
4425,104,Larynx,Right iTBS,Tone,Clear,58,2,0,0.5220636000158271,1
4426,104,Larynx,Right iTBS,Tone,Clear,59,5,1,0.561281299917027,1
4427,104,Larynx,Right iTBS,Tone,Clear,60,3,0,0.594341800082475,1
4428,104,Larynx,Right iTBS,Tone,Clear,61,3,1,0.588057699962519,1
4429,104,Larynx,Right iTBS,Tone,Clear,62,4,1,0.387138999998569,1
4430,104,Larynx,Right iTBS,Tone,Clear,63,2,0,0.580107300076634,1
4431,104,Larynx,Right iTBS,Tone,Clear,64,2,0,0.5385381999658421,1
4432,104,Larynx,Right iTBS,Tone,Clear,65,1,0,0.5433394999708979,1
4433,104,Larynx,Right iTBS,Tone,Clear,66,4,1,0.43334520002827004,1
4434,104,Larynx,Right iTBS,Tone,Clear,67,3,0,0.6202049999265,1
4435,104,Larynx,Right iTBS,Tone,Clear,68,3,1,0.5925256999908021,1
4436,104,Larynx,Right iTBS,Tone,Clear,69,3,1,0.39611169998534,1
4437,104,Larynx,Right iTBS,Tone,Clear,70,4,1,0.449353000032716,1
4438,104,Larynx,Right iTBS,Tone,Clear,71,5,1,0.40698309999425003,1
4439,104,Larynx,Right iTBS,Tone,Clear,72,2,0,0.575985699892044,1
4440,104,Larynx,Right iTBS,Tone,Clear,73,2,0,0.619178700027987,1
4441,104,Larynx,Right iTBS,Tone,Clear,74,3,1,0.421709200018086,1
4442,104,Larynx,Right iTBS,Tone,Clear,75,3,0,0.582419799990021,1
4443,104,Larynx,Right iTBS,Tone,Clear,76,3,1,0.5843364000320429,1
4444,104,Larynx,Right iTBS,Tone,Clear,77,1,0,0.596487600007094,1
4445,104,Larynx,Right iTBS,Tone,Clear,78,4,1,0.454714499996044,1
4446,104,Larynx,Right iTBS,Tone,Clear,79,2,0,0.5070438999682659,1
4447,104,Larynx,Right iTBS,Tone,Clear,80,4,1,0.4169232998974621,1
4448,104,Larynx,Right iTBS,Tone,Clear,81,2,0,0.45285250002052596,1
4449,104,Larynx,Right iTBS,Tone,Clear,82,3,1,0.8155655999435111,1
4450,104,Larynx,Right iTBS,Tone,Clear,83,2,0,0.665708199958317,1
4451,104,Larynx,Right iTBS,Tone,Clear,84,5,1,0.691116400063038,1
4452,104,Larynx,Right iTBS,Tone,Clear,85,3,0,0.627610399969853,1
4453,104,Larynx,Right iTBS,Tone,Clear,86,5,1,0.562348500010557,1
4454,104,Larynx,Right iTBS,Tone,Clear,87,4,1,0.47915270004887106,1
4455,104,Larynx,Right iTBS,Tone,Clear,88,4,1,0.386984599987045,1
4456,104,Larynx,Right iTBS,Tone,Clear,89,1,0,0.551927600055933,1
4457,104,Larynx,Right iTBS,Tone,Clear,90,3,1,0.3629291999386621,1
4458,104,Larynx,Right iTBS,Tone,Clear,91,5,1,0.37370050000026794,1
4459,104,Larynx,Right iTBS,Tone,Clear,92,4,1,0.393718400038779,1
4460,104,Larynx,Right iTBS,Tone,Clear,93,2,0,0.5430248000193391,1
4461,104,Larynx,Right iTBS,Tone,Clear,94,3,1,0.43366860004607594,1
4462,104,Larynx,Right iTBS,Tone,Clear,95,2,0,0.537871100008488,1
4463,104,Larynx,Right iTBS,Tone,Clear,96,5,1,0.417402500053868,1
4464,104,Larynx,Right iTBS,Tone,Clear,97,3,0,0.581717199995182,1
4465,104,Larynx,Right iTBS,Tone,Clear,98,3,1,0.38792279991321293,1
4466,104,Larynx,Right iTBS,Tone,Clear,99,2,1,0.34976110002026,1
4467,104,Larynx,Right iTBS,Tone,Clear,100,1,0,0.566189999924973,1
4468,104,Larynx,Right iTBS,Tone,Clear,101,4,1,0.483436599955894,1
4469,104,Larynx,Right iTBS,Tone,Clear,102,1,0,0.47471540002152296,1
4470,104,Larynx,Right iTBS,Tone,Clear,103,3,1,0.39610919996630395,1
4471,104,Larynx,Right iTBS,Tone,Clear,104,4,1,0.45578610000666203,1
4472,104,Larynx,Right iTBS,Tone,Clear,105,4,1,0.45955349993892,1
4473,104,Larynx,Right iTBS,Tone,Clear,106,1,0,0.50629199994728,1
4474,104,Larynx,Right iTBS,Tone,Clear,107,2,0,0.549469200079329,1
4475,104,Larynx,Right iTBS,Tone,Clear,108,3,1,0.45002059999387706,1
4476,104,Larynx,Right iTBS,Tone,Clear,109,5,1,0.5511741000227629,1
4477,104,Larynx,Right iTBS,Tone,Clear,110,4,1,0.500449000042863,1
4478,104,Larynx,Right iTBS,Tone,Clear,111,5,1,0.5305646000197161,1
4479,104,Larynx,Right iTBS,Tone,Clear,112,3,1,0.46003249997738704,1
4480,104,Larynx,Right iTBS,Tone,Clear,113,2,0,0.442302900017239,1
4481,104,Larynx,Right iTBS,Tone,Clear,114,3,1,0.455892400001176,1
4482,104,Larynx,Right iTBS,Tone,Clear,115,3,1,0.549650299944915,1
4483,104,Larynx,Right iTBS,Tone,Clear,116,1,0,0.417193599976599,1
4484,104,Larynx,Right iTBS,Tone,Clear,117,1,1,0.37575750006362796,1
4485,104,Larynx,Right iTBS,Tone,Clear,118,5,1,0.477374100009911,1
4486,104,Larynx,Right iTBS,Tone,Clear,119,4,1,0.493184000020847,1
4487,104,Larynx,Right iTBS,Tone,Clear,120,3,0,0.561580799985677,1
4488,104,Larynx,Right iTBS,Tone,Clear,121,4,1,0.40645320003386604,1
4489,104,Larynx,Right iTBS,Tone,Clear,122,3,1,0.399418400018476,1
4490,104,Larynx,Right iTBS,Tone,Clear,123,4,1,0.44395089999306897,1
4491,104,Larynx,Right iTBS,Tone,Clear,124,2,0,0.5629463999066501,1
4492,104,Larynx,Right iTBS,Tone,Clear,125,5,1,0.45722920005209705,1
4493,104,Larynx,Right iTBS,Tone,Clear,126,1,1,0.560677199973725,1
4494,104,Larynx,Right iTBS,Tone,Clear,127,2,0,0.5177503000013529,1
4495,104,Larynx,Right iTBS,Tone,Clear,128,3,1,0.598079800023697,1
4496,104,Larynx,Right iTBS,Tone,Clear,129,3,1,0.48533479997422496,1
4497,104,Larynx,Right iTBS,Tone,Clear,130,4,1,0.465312300017104,1
4498,104,Larynx,Right iTBS,Tone,Clear,131,3,0,0.58643809997011,1
4499,104,Larynx,Right iTBS,Tone,Clear,132,2,0,0.509412200073712,1
4500,104,Larynx,Right iTBS,Tone,Clear,133,4,1,0.436709400033578,1
4501,104,Larynx,Right iTBS,Tone,Clear,134,3,0,0.540744700003415,1
4502,104,Larynx,Right iTBS,Tone,Clear,135,5,1,0.30557860003318604,1
4503,104,Larynx,Right iTBS,Tone,Clear,136,3,0,0.5612982000457121,1
4504,104,Larynx,Right iTBS,Tone,Clear,137,2,1,0.356106600025669,1
4505,104,Larynx,Right iTBS,Tone,Clear,138,3,1,0.65213770000264,1
4506,104,Larynx,Right iTBS,Tone,Clear,139,1,0,0.49052039999514796,1
4507,104,Larynx,Right iTBS,Tone,Clear,140,2,0,0.627738500013947,1
4508,104,Larynx,Right iTBS,Tone,Clear,141,1,0,0.612520399969071,1
4509,104,Larynx,Right iTBS,Tone,Clear,142,5,1,0.455937099992298,1
4510,104,Larynx,Right iTBS,Tone,Clear,143,1,0,0.48433410003781296,1
4511,104,Larynx,Right iTBS,Tone,Clear,144,4,1,0.5032240999862551,1
4512,104,Larynx,Right iTBS,Tone,Clear,145,1,0,0.561343999928795,1
4513,104,Larynx,Right iTBS,Tone,Clear,146,4,1,0.471702699898742,1
4514,104,Larynx,Right iTBS,Tone,Clear,147,3,1,0.6531499999109661,1
4515,104,Larynx,Right iTBS,Tone,Clear,148,2,0,0.46714550000615396,1
4516,104,Larynx,Right iTBS,Tone,Clear,149,2,1,0.59299169993028,1
4517,104,Larynx,Right iTBS,Tone,Clear,150,5,1,0.50445819995366,1
4518,104,Larynx,Right iTBS,Tone,Clear,151,3,0,0.504122499958612,1
4519,104,Larynx,Right iTBS,Tone,Clear,152,4,1,0.65024580003228,1
4520,104,Larynx,Right iTBS,Tone,Clear,153,5,1,0.40277069993317105,1
4521,104,Larynx,Right iTBS,Tone,Clear,154,1,0,0.5561601999215781,1
4522,104,Larynx,Right iTBS,Tone,Clear,155,2,0,0.508674200042151,1
4523,104,Larynx,Right iTBS,Tone,Clear,156,3,1,0.5427249999484051,1
5616,104,Larynx,Sham,Tone,Clear,1,3,0,0.7461044000228871,1
5617,104,Larynx,Sham,Tone,Clear,2,3,0,0.6262017999542879,1
5618,104,Larynx,Sham,Tone,Clear,3,5,1,0.651367199956439,1
5619,104,Larynx,Sham,Tone,Clear,4,1,0,0.547613399976399,1
5620,104,Larynx,Sham,Tone,Clear,5,2,0,0.59058310004184,1
5621,104,Larynx,Sham,Tone,Clear,6,3,1,0.5602333999704571,1
5622,104,Larynx,Sham,Tone,Clear,7,2,0,0.789718999993056,1
5623,104,Larynx,Sham,Tone,Clear,8,2,0,0.6330386999761689,1
5624,104,Larynx,Sham,Tone,Clear,9,5,1,0.49529960000654705,1
5625,104,Larynx,Sham,Tone,Clear,10,4,1,0.536458999966271,1
5626,104,Larynx,Sham,Tone,Clear,11,5,1,0.4541460999753329,1
5627,104,Larynx,Sham,Tone,Clear,12,1,0,0.559067199996207,1
5628,104,Larynx,Sham,Tone,Clear,13,1,0,0.6148508000187579,1
5629,104,Larynx,Sham,Tone,Clear,14,4,1,0.537425999995321,1
5630,104,Larynx,Sham,Tone,Clear,15,5,1,0.47943659999873495,1
5631,104,Larynx,Sham,Tone,Clear,16,2,0,0.575246400025208,1
5632,104,Larynx,Sham,Tone,Clear,17,4,1,0.6398255999665711,1
5633,104,Larynx,Sham,Tone,Clear,18,4,1,0.5631702999817211,1
5634,104,Larynx,Sham,Tone,Clear,19,3,0,0.558484300039709,1
5635,104,Larynx,Sham,Tone,Clear,20,3,1,0.530058900010772,1
5636,104,Larynx,Sham,Tone,Clear,21,2,0,0.571846699982416,1
5637,104,Larynx,Sham,Tone,Clear,22,1,0,0.592346800025553,1
5638,104,Larynx,Sham,Tone,Clear,23,4,1,0.47514009999577,1
5639,104,Larynx,Sham,Tone,Clear,24,3,1,0.7200135000166479,1
5640,104,Larynx,Sham,Tone,Clear,25,3,1,0.5552484000218101,1
5641,104,Larynx,Sham,Tone,Clear,26,3,1,0.4832515000016429,1
5642,104,Larynx,Sham,Tone,Clear,27,1,0,0.475936600007117,1
5643,104,Larynx,Sham,Tone,Clear,28,5,1,0.544058799976483,1
5644,104,Larynx,Sham,Tone,Clear,29,2,0,0.5618730999995021,1
5645,104,Larynx,Sham,Tone,Clear,30,4,1,0.44343430001754297,1
5646,104,Larynx,Sham,Tone,Clear,31,2,0,0.6429700999869971,1
5647,104,Larynx,Sham,Tone,Clear,32,3,1,0.484759399958421,1
5648,104,Larynx,Sham,Tone,Clear,33,3,1,0.584764699975494,1
5649,104,Larynx,Sham,Tone,Clear,34,2,0,0.6561645999900071,1
5650,104,Larynx,Sham,Tone,Clear,35,4,1,0.62493709998671,1
5651,104,Larynx,Sham,Tone,Clear,36,3,0,0.657256399979815,1
5652,104,Larynx,Sham,Tone,Clear,37,5,1,1.01787159999367,1
5653,104,Larynx,Sham,Tone,Clear,38,1,0,0.556470100011211,1
5654,104,Larynx,Sham,Tone,Clear,39,4,1,0.548961499996949,1
5655,104,Larynx,Sham,Tone,Clear,40,5,1,0.548447699984536,1
5656,104,Larynx,Sham,Tone,Clear,41,3,1,0.78801190003287,1
5657,104,Larynx,Sham,Tone,Clear,42,3,1,0.973154200008139,1
5658,104,Larynx,Sham,Tone,Clear,43,4,1,0.588603200041689,1
5659,104,Larynx,Sham,Tone,Clear,44,3,0,0.541800600010902,1
5660,104,Larynx,Sham,Tone,Clear,45,4,1,0.6797749999677759,1
5661,104,Larynx,Sham,Tone,Clear,46,1,0,0.514984599954914,1
5662,104,Larynx,Sham,Tone,Clear,47,3,1,0.583982200012542,1
5663,104,Larynx,Sham,Tone,Clear,48,2,0,0.625317500031088,1
5664,104,Larynx,Sham,Tone,Clear,49,1,0,0.5962136000161989,1
5665,104,Larynx,Sham,Tone,Clear,50,4,1,0.45473489997675604,1
5666,104,Larynx,Sham,Tone,Clear,51,3,1,0.479067100037355,1
5667,104,Larynx,Sham,Tone,Clear,52,3,1,0.7344797999830921,1
5668,104,Larynx,Sham,Tone,Clear,53,1,0,0.570301199972164,1
5669,104,Larynx,Sham,Tone,Clear,54,5,1,0.49656229995889595,1
5670,104,Larynx,Sham,Tone,Clear,55,2,0,0.688634899968747,1
5671,104,Larynx,Sham,Tone,Clear,56,1,1,0.5614055999903941,1
5672,104,Larynx,Sham,Tone,Clear,57,4,1,0.510980999970343,1
5673,104,Larynx,Sham,Tone,Clear,58,4,1,0.465712099976372,1
5674,104,Larynx,Sham,Tone,Clear,59,2,0,0.5395833000075071,1
5675,104,Larynx,Sham,Tone,Clear,60,2,1,0.511191600002348,1
5676,104,Larynx,Sham,Tone,Clear,61,4,1,0.515669199987315,1
5677,104,Larynx,Sham,Tone,Clear,62,3,0,0.601155399985146,1
5678,104,Larynx,Sham,Tone,Clear,63,2,0,0.812664200027939,1
5679,104,Larynx,Sham,Tone,Clear,64,3,1,0.5839713999885129,1
5680,104,Larynx,Sham,Tone,Clear,65,3,0,0.546862000017427,1
5681,104,Larynx,Sham,Tone,Clear,66,5,0,0.536499099980574,1
5682,104,Larynx,Sham,Tone,Clear,67,2,0,0.719454400008544,1
5683,104,Larynx,Sham,Tone,Clear,68,2,0,0.6457144000451079,1
5684,104,Larynx,Sham,Tone,Clear,69,4,1,0.502312500029802,1
5685,104,Larynx,Sham,Tone,Clear,70,5,1,0.474092499993276,1
5686,104,Larynx,Sham,Tone,Clear,71,1,1,0.447359699988738,1
5687,104,Larynx,Sham,Tone,Clear,72,5,1,0.6298646000213921,1
5688,104,Larynx,Sham,Tone,Clear,73,1,0,0.556415400002152,1
5689,104,Larynx,Sham,Tone,Clear,74,4,1,0.44123510003555605,1
5690,104,Larynx,Sham,Tone,Clear,75,3,0,0.5703913000179449,1
5691,104,Larynx,Sham,Tone,Clear,76,2,0,0.6535777999670239,1
5692,104,Larynx,Sham,Tone,Clear,77,3,1,0.7819288999889978,1
5693,104,Larynx,Sham,Tone,Clear,78,5,1,0.46963970002252603,1
5694,104,Larynx,Sham,Tone,Clear,79,4,0,0.601298499968834,1
5695,104,Larynx,Sham,Tone,Clear,80,5,1,0.547034999995958,1
5696,104,Larynx,Sham,Tone,Clear,81,2,0,0.6730512999929489,1
5697,104,Larynx,Sham,Tone,Clear,82,3,1,0.667646199988667,1
5698,104,Larynx,Sham,Tone,Clear,83,4,1,0.520667300035711,1
5699,104,Larynx,Sham,Tone,Clear,84,4,1,0.5878937999950721,1
5700,104,Larynx,Sham,Tone,Clear,85,2,1,0.7150673000141979,1
5701,104,Larynx,Sham,Tone,Clear,86,2,0,0.8230509000131859,1
5702,104,Larynx,Sham,Tone,Clear,87,3,1,0.501437800005078,1
5703,104,Larynx,Sham,Tone,Clear,88,5,1,0.6174371000379321,1
5704,104,Larynx,Sham,Tone,Clear,89,1,0,0.55154290003702,1
5705,104,Larynx,Sham,Tone,Clear,90,4,1,0.49813409999478603,1
5706,104,Larynx,Sham,Tone,Clear,91,3,0,0.492316199990455,1
5707,104,Larynx,Sham,Tone,Clear,92,1,0,0.666952600004151,1
5708,104,Larynx,Sham,Tone,Clear,93,3,1,0.559924400004093,1
5709,104,Larynx,Sham,Tone,Clear,94,3,1,0.483912600029726,1
5710,104,Larynx,Sham,Tone,Clear,95,1,0,0.562771099968813,1
5711,104,Larynx,Sham,Tone,Clear,96,2,0,0.5801358000026079,1
5712,104,Larynx,Sham,Tone,Clear,97,5,1,0.47189639997668603,1
5713,104,Larynx,Sham,Tone,Clear,98,5,1,0.46303840004839003,1
5714,104,Larynx,Sham,Tone,Clear,99,4,1,0.694006100005936,1
5715,104,Larynx,Sham,Tone,Clear,100,3,1,0.46119729999918496,1
5716,104,Larynx,Sham,Tone,Clear,101,3,1,0.6248599999817089,1
5717,104,Larynx,Sham,Tone,Clear,102,5,1,0.5578153000096789,1
5718,104,Larynx,Sham,Tone,Clear,103,4,1,0.538183700002264,1
5719,104,Larynx,Sham,Tone,Clear,104,3,1,0.43988760001957394,1
5720,104,Larynx,Sham,Tone,Clear,105,2,0,0.649454200000037,1
5721,104,Larynx,Sham,Tone,Clear,106,4,1,0.5526833999902011,1
5722,104,Larynx,Sham,Tone,Clear,107,1,0,0.6245045000105159,1
5723,104,Larynx,Sham,Tone,Clear,108,1,0,0.576954899996053,1
5724,104,Larynx,Sham,Tone,Clear,109,3,0,0.5719328999985009,1
5725,104,Larynx,Sham,Tone,Clear,110,2,1,0.5266997000435371,1
5726,104,Larynx,Sham,Tone,Clear,111,1,0,0.7394724000478159,1
5727,104,Larynx,Sham,Tone,Clear,112,5,1,0.417501399992034,1
5728,104,Larynx,Sham,Tone,Clear,113,2,1,0.576731599983759,1
5729,104,Larynx,Sham,Tone,Clear,114,4,1,0.658923399983905,1
5730,104,Larynx,Sham,Tone,Clear,115,3,1,0.534329499991145,1
5731,104,Larynx,Sham,Tone,Clear,116,3,0,0.623810299963225,1
5732,104,Larynx,Sham,Tone,Clear,117,2,0,0.713078000000678,1
5733,104,Larynx,Sham,Tone,Clear,118,1,0,0.702737600018736,1
5734,104,Larynx,Sham,Tone,Clear,119,4,1,0.45378499996149896,1
5735,104,Larynx,Sham,Tone,Clear,120,4,1,0.532743200019468,1
5736,104,Larynx,Sham,Tone,Clear,121,2,0,0.601168600027449,1
5737,104,Larynx,Sham,Tone,Clear,122,1,0,0.594152599980589,1
5738,104,Larynx,Sham,Tone,Clear,123,2,1,0.561358399980236,1
5739,104,Larynx,Sham,Tone,Clear,124,5,1,0.541015599970706,1
5740,104,Larynx,Sham,Tone,Clear,125,4,1,0.525034899997991,1
5741,104,Larynx,Sham,Tone,Clear,126,2,1,0.6709714999888089,1
5742,104,Larynx,Sham,Tone,Clear,127,3,1,0.6928526999545279,1
5743,104,Larynx,Sham,Tone,Clear,128,4,0,0.5935836000135171,1
5744,104,Larynx,Sham,Tone,Clear,129,3,0,0.6591991999885071,1
5745,104,Larynx,Sham,Tone,Clear,130,1,0,0.7273569999961179,1
5746,104,Larynx,Sham,Tone,Clear,131,2,1,0.512863499985542,1
5747,104,Larynx,Sham,Tone,Clear,132,1,0,0.8545184999820781,1
5748,104,Larynx,Sham,Tone,Clear,133,3,0,0.7514537000097329,1
5749,104,Larynx,Sham,Tone,Clear,134,4,1,0.546822400006931,1
5750,104,Larynx,Sham,Tone,Clear,135,3,1,0.7488018000149169,1
5751,104,Larynx,Sham,Tone,Clear,136,3,1,0.593604499998037,1
5752,104,Larynx,Sham,Tone,Clear,137,5,1,0.69338880002033,1
5753,104,Larynx,Sham,Tone,Clear,138,2,0,0.7695414000190791,1
5754,104,Larynx,Sham,Tone,Clear,139,3,1,0.7201938999933191,1
5755,104,Larynx,Sham,Tone,Clear,140,2,1,0.543994400009979,1
5756,104,Larynx,Sham,Tone,Clear,141,5,1,0.533274799992796,1
5757,104,Larynx,Sham,Tone,Clear,142,3,0,0.653478499967605,1
5758,104,Larynx,Sham,Tone,Clear,143,5,1,0.555612299998757,1
5759,104,Larynx,Sham,Tone,Clear,144,2,0,0.6847901999717579,1
5760,104,Larynx,Sham,Tone,Clear,145,3,1,0.768855899979826,1
5761,104,Larynx,Sham,Tone,Clear,146,1,0,0.614138000004459,1
5762,104,Larynx,Sham,Tone,Clear,147,3,1,0.585270699986722,1
5763,104,Larynx,Sham,Tone,Clear,148,4,1,0.503485900000669,1
5764,104,Larynx,Sham,Tone,Clear,149,4,1,0.505519700003788,1
5765,104,Larynx,Sham,Tone,Clear,150,2,0,0.541936099994928,1
5766,104,Larynx,Sham,Tone,Clear,151,5,1,0.5371672000037511,1
5767,104,Larynx,Sham,Tone,Clear,152,3,0,0.546386400004849,1
5768,104,Larynx,Sham,Tone,Clear,153,3,0,0.7437565000145699,1
5769,104,Larynx,Sham,Tone,Clear,154,5,1,0.489477899973281,1
5770,104,Larynx,Sham,Tone,Clear,155,4,1,0.58005539997248,1
5771,104,Larynx,Sham,Tone,Clear,156,1,0,0.619593499985058,1
7488,123,Larynx,Right iTBS,Tone,Clear,1,5,1,0.7380488999187951,1
7489,123,Larynx,Right iTBS,Tone,Clear,2,1,0,0.56026399997063,1
7490,123,Larynx,Right iTBS,Tone,Clear,3,4,1,0.49203550000675,1
7491,123,Larynx,Right iTBS,Tone,Clear,4,3,1,0.610056800069287,1
7492,123,Larynx,Right iTBS,Tone,Clear,5,3,1,0.422252999967895,1
7493,123,Larynx,Right iTBS,Tone,Clear,6,1,1,0.41037880000658294,1
7494,123,Larynx,Right iTBS,Tone,Clear,7,5,1,0.574513100087643,1
7495,123,Larynx,Right iTBS,Tone,Clear,8,4,1,0.515834299963899,1
7496,123,Larynx,Right iTBS,Tone,Clear,9,3,1,0.615603200043552,1
7497,123,Larynx,Right iTBS,Tone,Clear,10,3,1,0.600561700062826,1
7498,123,Larynx,Right iTBS,Tone,Clear,11,1,0,0.468243499984965,1
7499,123,Larynx,Right iTBS,Tone,Clear,12,2,0,0.41862869996111796,1
7500,123,Larynx,Right iTBS,Tone,Clear,13,4,0,0.38032510003540704,1
7501,123,Larynx,Right iTBS,Tone,Clear,14,3,1,0.38396730006206803,1
7502,123,Larynx,Right iTBS,Tone,Clear,15,2,1,0.320303000044078,1
7503,123,Larynx,Right iTBS,Tone,Clear,16,2,1,0.628264799946919,1
7504,123,Larynx,Right iTBS,Tone,Clear,17,4,1,0.34862890001386404,1
7505,123,Larynx,Right iTBS,Tone,Clear,18,2,1,0.35162080009467894,1
7506,123,Larynx,Right iTBS,Tone,Clear,19,3,1,0.465255800052546,1
7507,123,Larynx,Right iTBS,Tone,Clear,20,3,1,0.3868130999617279,1
7508,123,Larynx,Right iTBS,Tone,Clear,21,5,1,0.503084699972533,1
7509,123,Larynx,Right iTBS,Tone,Clear,22,1,0,0.460391200031154,1
7510,123,Larynx,Right iTBS,Tone,Clear,23,4,1,0.354005899978802,1
7511,123,Larynx,Right iTBS,Tone,Clear,24,4,1,0.378671100013889,1
7512,123,Larynx,Right iTBS,Tone,Clear,25,4,1,0.375242599984631,1
7513,123,Larynx,Right iTBS,Tone,Clear,26,3,1,0.364327499992214,1
7514,123,Larynx,Right iTBS,Tone,Clear,27,3,1,0.6013956000097099,1
7515,123,Larynx,Right iTBS,Tone,Clear,28,1,0,0.550649799988605,1
7516,123,Larynx,Right iTBS,Tone,Clear,29,2,1,0.503602399956435,1
7517,123,Larynx,Right iTBS,Tone,Clear,30,5,1,0.36538309999741597,1
7518,123,Larynx,Right iTBS,Tone,Clear,31,2,1,0.41262940003071,1
7519,123,Larynx,Right iTBS,Tone,Clear,32,5,1,0.436671500094235,1
7520,123,Larynx,Right iTBS,Tone,Clear,33,5,1,0.44495300005655697,1
7521,123,Larynx,Right iTBS,Tone,Clear,34,2,0,0.6900641999673102,1
7522,123,Larynx,Right iTBS,Tone,Clear,35,3,1,0.352483100024983,1
7523,123,Larynx,Right iTBS,Tone,Clear,36,4,1,0.35431099997367704,1
7524,123,Larynx,Right iTBS,Tone,Clear,37,2,1,0.364497700007632,1
7525,123,Larynx,Right iTBS,Tone,Clear,38,1,1,0.651963799959049,1
7526,123,Larynx,Right iTBS,Tone,Clear,39,3,1,0.6468257999513299,1
7527,123,Larynx,Right iTBS,Tone,Clear,40,1,0,0.583393700071611,1
7528,123,Larynx,Right iTBS,Tone,Clear,41,2,1,0.419305999996141,1
7529,123,Larynx,Right iTBS,Tone,Clear,42,3,1,0.499702199944295,1
7530,123,Larynx,Right iTBS,Tone,Clear,43,2,1,0.45542559993919,1
7531,123,Larynx,Right iTBS,Tone,Clear,44,1,0,0.633574499981478,1
7532,123,Larynx,Right iTBS,Tone,Clear,45,3,1,0.531762300059199,1
7533,123,Larynx,Right iTBS,Tone,Clear,46,2,1,0.365153699996881,1
7534,123,Larynx,Right iTBS,Tone,Clear,47,3,1,0.48625740001443796,1
7535,123,Larynx,Right iTBS,Tone,Clear,48,2,1,0.424113799934275,1
7536,123,Larynx,Right iTBS,Tone,Clear,49,3,1,0.49977840005885793,1
7537,123,Larynx,Right iTBS,Tone,Clear,50,4,1,0.44968570000492,1
7538,123,Larynx,Right iTBS,Tone,Clear,51,3,1,0.435635100002401,1
7539,123,Larynx,Right iTBS,Tone,Clear,52,2,1,0.427971300086938,1
7540,123,Larynx,Right iTBS,Tone,Clear,53,3,1,0.545906500075944,1
7541,123,Larynx,Right iTBS,Tone,Clear,54,4,1,0.43472959997598104,1
7542,123,Larynx,Right iTBS,Tone,Clear,55,4,1,0.43498849996831296,1
7543,123,Larynx,Right iTBS,Tone,Clear,56,3,1,0.570948000065982,1
7544,123,Larynx,Right iTBS,Tone,Clear,57,4,1,0.40723189990967495,1
7545,123,Larynx,Right iTBS,Tone,Clear,58,4,1,0.40338709997013206,1
7546,123,Larynx,Right iTBS,Tone,Clear,59,4,1,0.38563379994593605,1
7547,123,Larynx,Right iTBS,Tone,Clear,60,3,1,0.36888259998522704,1
7548,123,Larynx,Right iTBS,Tone,Clear,61,3,1,0.55524819996208,1
7549,123,Larynx,Right iTBS,Tone,Clear,62,5,1,0.37362139998003796,1
7550,123,Larynx,Right iTBS,Tone,Clear,63,1,0,0.55478939996101,1
7551,123,Larynx,Right iTBS,Tone,Clear,64,3,1,0.49915029993280796,1
7552,123,Larynx,Right iTBS,Tone,Clear,65,2,1,0.33397639996837797,1
7553,123,Larynx,Right iTBS,Tone,Clear,66,1,0,0.8235614000586792,1
7554,123,Larynx,Right iTBS,Tone,Clear,67,2,1,0.8953588000731542,1
7555,123,Larynx,Right iTBS,Tone,Clear,68,5,1,0.5676877999212591,1
7556,123,Larynx,Right iTBS,Tone,Clear,69,2,1,1.06865700008348,1
7557,123,Larynx,Right iTBS,Tone,Clear,70,5,1,0.515033700037748,1
7558,123,Larynx,Right iTBS,Tone,Clear,71,1,0,0.638721999945119,1
7559,123,Larynx,Right iTBS,Tone,Clear,72,5,1,0.365273599978536,1
7560,123,Larynx,Right iTBS,Tone,Clear,73,4,1,0.46836950001306804,1
7561,123,Larynx,Right iTBS,Tone,Clear,74,4,1,0.353429300012067,1
7562,123,Larynx,Right iTBS,Tone,Clear,75,1,0,0.50598659995012,1
7563,123,Larynx,Right iTBS,Tone,Clear,76,5,1,0.39143860002514,1
7564,123,Larynx,Right iTBS,Tone,Clear,77,3,1,0.332992899930105,1
7565,123,Larynx,Right iTBS,Tone,Clear,78,5,1,0.30215079989284305,1
7566,123,Larynx,Right iTBS,Tone,Clear,79,2,1,0.29769660008605603,1
7567,123,Larynx,Right iTBS,Tone,Clear,80,3,1,0.37187549995724106,1
7568,123,Larynx,Right iTBS,Tone,Clear,81,4,1,0.3612643999513239,1
7569,123,Larynx,Right iTBS,Tone,Clear,82,5,1,0.322892399970442,1
7570,123,Larynx,Right iTBS,Tone,Clear,83,3,1,0.3657534000230949,1
7571,123,Larynx,Right iTBS,Tone,Clear,84,2,1,0.5519132999470461,1
7572,123,Larynx,Right iTBS,Tone,Clear,85,2,1,0.407135499990545,1
7573,123,Larynx,Right iTBS,Tone,Clear,86,4,1,0.5799966000486171,1
7574,123,Larynx,Right iTBS,Tone,Clear,87,4,1,0.390576099976897,1
7575,123,Larynx,Right iTBS,Tone,Clear,88,3,1,0.551632100017741,1
7576,123,Larynx,Right iTBS,Tone,Clear,89,2,1,0.352401099982671,1
7577,123,Larynx,Right iTBS,Tone,Clear,90,3,1,0.567455399897881,1
7578,123,Larynx,Right iTBS,Tone,Clear,91,3,1,0.473101499956101,1
7579,123,Larynx,Right iTBS,Tone,Clear,92,1,0,0.5525373000418771,1
7580,123,Larynx,Right iTBS,Tone,Clear,93,2,1,0.35478950000833703,1
7581,123,Larynx,Right iTBS,Tone,Clear,94,3,1,0.724219000083394,1
7582,123,Larynx,Right iTBS,Tone,Clear,95,5,1,0.45027269993443,1
7583,123,Larynx,Right iTBS,Tone,Clear,96,4,1,0.382711800048128,1
7584,123,Larynx,Right iTBS,Tone,Clear,97,5,1,0.36250419996213207,1
7585,123,Larynx,Right iTBS,Tone,Clear,98,4,1,0.46458809997420797,1
7586,123,Larynx,Right iTBS,Tone,Clear,99,1,1,0.360123199992813,1
7587,123,Larynx,Right iTBS,Tone,Clear,100,1,0,0.667541800066829,1
7588,123,Larynx,Right iTBS,Tone,Clear,101,1,0,0.549882099963725,1
7589,123,Larynx,Right iTBS,Tone,Clear,102,3,1,0.48661799996625604,1
7590,123,Larynx,Right iTBS,Tone,Clear,103,3,1,0.55222800001502,1
7591,123,Larynx,Right iTBS,Tone,Clear,104,5,1,0.340272000059485,1
7592,123,Larynx,Right iTBS,Tone,Clear,105,4,1,0.43210350000299497,1
7593,123,Larynx,Right iTBS,Tone,Clear,106,5,1,0.429026699974202,1
7594,123,Larynx,Right iTBS,Tone,Clear,107,3,1,0.424885299988091,1
7595,123,Larynx,Right iTBS,Tone,Clear,108,2,1,0.5957236000103879,1
7596,123,Larynx,Right iTBS,Tone,Clear,109,2,0,0.669949300005101,1
7597,123,Larynx,Right iTBS,Tone,Clear,110,4,1,0.4143369999947029,1
7598,123,Larynx,Right iTBS,Tone,Clear,111,2,1,0.311078400001861,1
7599,123,Larynx,Right iTBS,Tone,Clear,112,1,0,0.592096399981529,1
7600,123,Larynx,Right iTBS,Tone,Clear,113,5,1,0.436825199984014,1
7601,123,Larynx,Right iTBS,Tone,Clear,114,3,1,0.4734146000118929,1
7602,123,Larynx,Right iTBS,Tone,Clear,115,4,1,0.41917570005171,1
7603,123,Larynx,Right iTBS,Tone,Clear,116,1,0,0.515208199969493,1
7604,123,Larynx,Right iTBS,Tone,Clear,117,3,1,0.34453810006380103,1
7605,123,Larynx,Right iTBS,Tone,Clear,118,4,1,0.33864800003357204,1
7606,123,Larynx,Right iTBS,Tone,Clear,119,4,1,0.38336739991791496,1
7607,123,Larynx,Right iTBS,Tone,Clear,120,3,1,0.43917889997828796,1
7608,123,Larynx,Right iTBS,Tone,Clear,121,2,1,0.4058164999587461,1
7609,123,Larynx,Right iTBS,Tone,Clear,122,3,1,0.555804200004786,1
7610,123,Larynx,Right iTBS,Tone,Clear,123,3,1,0.636679799994454,1
7611,123,Larynx,Right iTBS,Tone,Clear,124,1,0,0.55392709991429,1
7612,123,Larynx,Right iTBS,Tone,Clear,125,3,1,0.39581880008336207,1
7613,123,Larynx,Right iTBS,Tone,Clear,126,4,1,0.370411599986255,1
7614,123,Larynx,Right iTBS,Tone,Clear,127,4,1,0.4162962000118571,1
7615,123,Larynx,Right iTBS,Tone,Clear,128,5,1,0.390200599911623,1
7616,123,Larynx,Right iTBS,Tone,Clear,129,5,1,0.44004499993752705,1
7617,123,Larynx,Right iTBS,Tone,Clear,130,2,0,0.6109928999794649,1
7618,123,Larynx,Right iTBS,Tone,Clear,131,2,0,0.5836997000733389,1
7619,123,Larynx,Right iTBS,Tone,Clear,132,4,1,0.394830500008538,1
7620,123,Larynx,Right iTBS,Tone,Clear,133,5,1,0.390704500023276,1
7621,123,Larynx,Right iTBS,Tone,Clear,134,2,1,0.36043229990173103,1
7622,123,Larynx,Right iTBS,Tone,Clear,135,5,0,0.522842799895443,1
7623,123,Larynx,Right iTBS,Tone,Clear,136,4,1,0.8626788000110541,1
7624,123,Larynx,Right iTBS,Tone,Clear,137,2,0,0.583688399987295,1
7625,123,Larynx,Right iTBS,Tone,Clear,138,1,0,0.5771641000173989,1
7626,123,Larynx,Right iTBS,Tone,Clear,139,2,0,0.5649146999930961,1
7627,123,Larynx,Right iTBS,Tone,Clear,140,1,0,0.465623800060712,1
7628,123,Larynx,Right iTBS,Tone,Clear,141,4,1,0.44111070001963504,1
7629,123,Larynx,Right iTBS,Tone,Clear,142,5,1,0.36479199992027095,1
7630,123,Larynx,Right iTBS,Tone,Clear,143,3,1,0.394920099992305,1
7631,123,Larynx,Right iTBS,Tone,Clear,144,3,1,0.6547039999859411,1
7632,123,Larynx,Right iTBS,Tone,Clear,145,2,0,0.6310289000393821,1
7633,123,Larynx,Right iTBS,Tone,Clear,146,1,0,0.7014534999616441,1
7634,123,Larynx,Right iTBS,Tone,Clear,147,3,1,0.46941209991928207,1
7635,123,Larynx,Right iTBS,Tone,Clear,148,2,1,0.36763470002915705,1
7636,123,Larynx,Right iTBS,Tone,Clear,149,3,1,0.36607160000130495,1
7637,123,Larynx,Right iTBS,Tone,Clear,150,1,0,0.757191799930297,1
7638,123,Larynx,Right iTBS,Tone,Clear,151,5,1,0.357083100010641,1
7639,123,Larynx,Right iTBS,Tone,Clear,152,3,1,0.346539299935102,1
7640,123,Larynx,Right iTBS,Tone,Clear,153,4,1,0.52586179994978,1
7641,123,Larynx,Right iTBS,Tone,Clear,154,3,1,0.590053699910641,1
7642,123,Larynx,Right iTBS,Tone,Clear,155,1,0,0.550790400011465,1
7643,123,Larynx,Right iTBS,Tone,Clear,156,3,1,0.43356390006374607,1
8736,123,Larynx,Sham,Tone,Clear,1,4,1,0.862170199980028,1
8737,123,Larynx,Sham,Tone,Clear,2,2,0,0.5595041000051421,1
8738,123,Larynx,Sham,Tone,Clear,3,2,0,0.6769343999912961,1
8739,123,Larynx,Sham,Tone,Clear,4,3,0,0.664124400005676,1
8740,123,Larynx,Sham,Tone,Clear,5,3,1,0.506878000102006,1
8741,123,Larynx,Sham,Tone,Clear,6,3,1,0.363215000019409,1
8742,123,Larynx,Sham,Tone,Clear,7,4,1,0.413163699908182,1
8743,123,Larynx,Sham,Tone,Clear,8,1,0,0.561461800010875,1
8744,123,Larynx,Sham,Tone,Clear,9,1,0,0.5766646000556651,1
8745,123,Larynx,Sham,Tone,Clear,10,2,0,0.784153799992055,1
8746,123,Larynx,Sham,Tone,Clear,11,2,1,0.44519879994913897,1
8747,123,Larynx,Sham,Tone,Clear,12,4,1,0.467710400000215,1
8748,123,Larynx,Sham,Tone,Clear,13,5,1,0.449038999970071,1
8749,123,Larynx,Sham,Tone,Clear,14,5,1,0.573221900034696,1
8750,123,Larynx,Sham,Tone,Clear,15,3,1,0.791846999898553,1
8751,123,Larynx,Sham,Tone,Clear,16,2,0,0.47912700008601,1
8752,123,Larynx,Sham,Tone,Clear,17,4,1,0.463297800044529,1
8753,123,Larynx,Sham,Tone,Clear,18,1,0,0.582482099998742,1
8754,123,Larynx,Sham,Tone,Clear,19,1,0,0.5991487000137571,1
8755,123,Larynx,Sham,Tone,Clear,20,3,1,0.464048399939202,1
8756,123,Larynx,Sham,Tone,Clear,21,3,1,0.556530900066718,1
8757,123,Larynx,Sham,Tone,Clear,22,2,0,0.72516260005068,1
8758,123,Larynx,Sham,Tone,Clear,23,5,1,0.467286000028253,1
8759,123,Larynx,Sham,Tone,Clear,24,4,1,0.6648837999673559,1
8760,123,Larynx,Sham,Tone,Clear,25,5,1,0.501729400013573,1
8761,123,Larynx,Sham,Tone,Clear,26,3,1,0.8293680000351741,1
8762,123,Larynx,Sham,Tone,Clear,27,4,1,0.526583700091578,1
8763,123,Larynx,Sham,Tone,Clear,28,3,1,0.657946899998933,1
8764,123,Larynx,Sham,Tone,Clear,29,1,0,0.618689900031313,1
8765,123,Larynx,Sham,Tone,Clear,30,5,1,0.646685599931516,1
8766,123,Larynx,Sham,Tone,Clear,31,1,0,0.6595277000451459,1
8767,123,Larynx,Sham,Tone,Clear,32,3,1,0.602194499922916,1
8768,123,Larynx,Sham,Tone,Clear,33,5,1,0.43901720002759204,1
8769,123,Larynx,Sham,Tone,Clear,34,3,1,0.443887400091626,1
8770,123,Larynx,Sham,Tone,Clear,35,3,1,0.5928860999410971,1
8771,123,Larynx,Sham,Tone,Clear,36,2,1,0.412555699935183,1
8772,123,Larynx,Sham,Tone,Clear,37,4,1,0.450949700083584,1
8773,123,Larynx,Sham,Tone,Clear,38,2,1,0.6281628999859089,1
8774,123,Larynx,Sham,Tone,Clear,39,4,1,0.460737499990501,1
8775,123,Larynx,Sham,Tone,Clear,40,2,0,0.5710067999316379,1
8776,123,Larynx,Sham,Tone,Clear,41,3,1,0.52716080006212,1
8777,123,Larynx,Sham,Tone,Clear,42,5,1,0.38958369998727,1
8778,123,Larynx,Sham,Tone,Clear,43,4,1,0.38512990006711295,1
8779,123,Larynx,Sham,Tone,Clear,44,1,0,0.5413294000318271,1
8780,123,Larynx,Sham,Tone,Clear,45,2,1,0.588907399913296,1
8781,123,Larynx,Sham,Tone,Clear,46,5,1,0.44411899999249704,1
8782,123,Larynx,Sham,Tone,Clear,47,1,0,0.672099100076593,1
8783,123,Larynx,Sham,Tone,Clear,48,3,1,0.656817900016904,1
8784,123,Larynx,Sham,Tone,Clear,49,1,0,0.575084600015543,1
8785,123,Larynx,Sham,Tone,Clear,50,3,1,0.47230640007183,1
8786,123,Larynx,Sham,Tone,Clear,51,1,1,0.45701380004175,1
8787,123,Larynx,Sham,Tone,Clear,52,4,1,0.5466517000459129,1
8788,123,Larynx,Sham,Tone,Clear,53,5,1,0.514330800040625,1
8789,123,Larynx,Sham,Tone,Clear,54,4,1,0.548379100044258,1
8790,123,Larynx,Sham,Tone,Clear,55,4,1,0.43523139995522797,1
8791,123,Larynx,Sham,Tone,Clear,56,5,1,0.40302720002364395,1
8792,123,Larynx,Sham,Tone,Clear,57,2,0,0.618700899998657,1
8793,123,Larynx,Sham,Tone,Clear,58,2,0,0.677249899948947,1
8794,123,Larynx,Sham,Tone,Clear,59,5,1,0.48582930001430197,1
8795,123,Larynx,Sham,Tone,Clear,60,3,1,0.655395200010389,1
8796,123,Larynx,Sham,Tone,Clear,61,3,0,0.580950199975632,1
8797,123,Larynx,Sham,Tone,Clear,62,4,1,0.5079453999642279,1
8798,123,Larynx,Sham,Tone,Clear,63,2,0,0.576529800076969,1
8799,123,Larynx,Sham,Tone,Clear,64,2,1,0.5656689000315961,1
8800,123,Larynx,Sham,Tone,Clear,65,1,1,0.716017399914563,1
8801,123,Larynx,Sham,Tone,Clear,66,4,1,0.6111564999446271,1
8802,123,Larynx,Sham,Tone,Clear,67,3,1,0.7028245000401511,1
8803,123,Larynx,Sham,Tone,Clear,68,3,1,0.554445500019938,1
8804,123,Larynx,Sham,Tone,Clear,69,3,1,0.8224696000106629,1
8805,123,Larynx,Sham,Tone,Clear,70,4,1,0.543204899993725,1
8806,123,Larynx,Sham,Tone,Clear,71,5,1,0.5011886999709529,1
8807,123,Larynx,Sham,Tone,Clear,72,2,0,0.54206820006948,1
8808,123,Larynx,Sham,Tone,Clear,73,2,0,0.8043484999798242,1
8809,123,Larynx,Sham,Tone,Clear,74,3,1,0.660762500017881,1
8810,123,Larynx,Sham,Tone,Clear,75,3,1,0.938543600030243,1
8811,123,Larynx,Sham,Tone,Clear,76,3,1,0.621757399989292,1
8812,123,Larynx,Sham,Tone,Clear,77,1,0,0.581201500026509,1
8813,123,Larynx,Sham,Tone,Clear,78,4,1,0.491875099949539,1
8814,123,Larynx,Sham,Tone,Clear,79,2,0,0.537234399933368,1
8815,123,Larynx,Sham,Tone,Clear,80,4,1,0.38813889992889,1
8816,123,Larynx,Sham,Tone,Clear,81,2,1,0.41353520005941397,1
8817,123,Larynx,Sham,Tone,Clear,82,3,1,0.44924230000469795,1
8818,123,Larynx,Sham,Tone,Clear,83,2,1,0.394055599928834,1
8819,123,Larynx,Sham,Tone,Clear,84,5,0,0.470660799997859,1
8820,123,Larynx,Sham,Tone,Clear,85,3,1,0.644044199958444,1
8821,123,Larynx,Sham,Tone,Clear,86,5,1,0.43782700004521796,1
8822,123,Larynx,Sham,Tone,Clear,87,4,1,0.37262770009692797,1
8823,123,Larynx,Sham,Tone,Clear,88,4,1,0.411449100007303,1
8824,123,Larynx,Sham,Tone,Clear,89,1,0,0.562814200064167,1
8825,123,Larynx,Sham,Tone,Clear,90,3,1,0.7382935000350699,1
8826,123,Larynx,Sham,Tone,Clear,91,5,1,0.42716479999944607,1
8827,123,Larynx,Sham,Tone,Clear,92,4,1,0.40410869999322996,1
8828,123,Larynx,Sham,Tone,Clear,93,2,0,0.45034620002843395,1
8829,123,Larynx,Sham,Tone,Clear,94,3,1,0.741742699989118,1
8830,123,Larynx,Sham,Tone,Clear,95,2,0,0.6176803000271321,1
8831,123,Larynx,Sham,Tone,Clear,96,5,1,0.39409630000591295,1
8832,123,Larynx,Sham,Tone,Clear,97,3,1,0.36195320007391296,1
8833,123,Larynx,Sham,Tone,Clear,98,3,1,0.34979170002043203,1
8834,123,Larynx,Sham,Tone,Clear,99,2,0,0.576032200013287,1
8835,123,Larynx,Sham,Tone,Clear,100,1,1,0.41832890000659995,1
8836,123,Larynx,Sham,Tone,Clear,101,4,1,0.5010518999770279,1
8837,123,Larynx,Sham,Tone,Clear,102,1,0,0.5791600999655201,1
8838,123,Larynx,Sham,Tone,Clear,103,3,1,0.548051199992187,1
8839,123,Larynx,Sham,Tone,Clear,104,4,1,0.416630799998529,1
8840,123,Larynx,Sham,Tone,Clear,105,4,1,0.570444399956614,1
8841,123,Larynx,Sham,Tone,Clear,106,1,1,0.387721200007945,1
8842,123,Larynx,Sham,Tone,Clear,107,2,0,0.878395000007004,1
8843,123,Larynx,Sham,Tone,Clear,108,3,1,0.477847800008021,1
8844,123,Larynx,Sham,Tone,Clear,109,5,1,1.59177759999875,1
8845,123,Larynx,Sham,Tone,Clear,110,4,1,0.5112540000118321,1
8846,123,Larynx,Sham,Tone,Clear,111,5,1,0.759080599993467,1
8847,123,Larynx,Sham,Tone,Clear,112,3,1,0.677266500075348,1
8848,123,Larynx,Sham,Tone,Clear,113,2,0,0.451649299939163,1
8849,123,Larynx,Sham,Tone,Clear,114,3,1,0.610181599971838,1
8850,123,Larynx,Sham,Tone,Clear,115,3,1,0.411813999991864,1
8851,123,Larynx,Sham,Tone,Clear,116,1,0,0.619627399952151,1
8852,123,Larynx,Sham,Tone,Clear,117,1,0,0.86018930003047,1
8853,123,Larynx,Sham,Tone,Clear,118,5,1,0.38788519997615395,1
8854,123,Larynx,Sham,Tone,Clear,119,4,1,0.506925900001079,1
8855,123,Larynx,Sham,Tone,Clear,120,3,1,0.38386029994580895,1
8856,123,Larynx,Sham,Tone,Clear,121,4,1,0.39067520003300205,1
8857,123,Larynx,Sham,Tone,Clear,122,3,1,0.42365159990731605,1
8858,123,Larynx,Sham,Tone,Clear,123,4,1,0.5450957999564711,1
8859,123,Larynx,Sham,Tone,Clear,124,2,0,0.596500399988145,1
8860,123,Larynx,Sham,Tone,Clear,125,5,1,0.602845499990508,1
8861,123,Larynx,Sham,Tone,Clear,126,1,0,0.570858299965039,1
8862,123,Larynx,Sham,Tone,Clear,127,2,0,0.621310199960135,1
8863,123,Larynx,Sham,Tone,Clear,128,3,1,0.48555109999142604,1
8864,123,Larynx,Sham,Tone,Clear,129,3,1,0.363101799972355,1
8865,123,Larynx,Sham,Tone,Clear,130,4,1,0.352152500068769,1
8866,123,Larynx,Sham,Tone,Clear,131,3,1,0.452323299949057,1
8867,123,Larynx,Sham,Tone,Clear,132,2,1,0.34509709989652,1
8868,123,Larynx,Sham,Tone,Clear,133,4,1,0.62360459996853,1
8869,123,Larynx,Sham,Tone,Clear,134,3,1,0.414889900013804,1
8870,123,Larynx,Sham,Tone,Clear,135,5,1,0.38976960000582,1
8871,123,Larynx,Sham,Tone,Clear,136,3,1,0.364767799968831,1
8872,123,Larynx,Sham,Tone,Clear,137,2,1,0.742596400086768,1
8873,123,Larynx,Sham,Tone,Clear,138,3,1,0.505346999969333,1
8874,123,Larynx,Sham,Tone,Clear,139,1,0,0.5419694999000061,1
8875,123,Larynx,Sham,Tone,Clear,140,2,0,0.8847054999787359,1
8876,123,Larynx,Sham,Tone,Clear,141,1,1,0.39015729993116105,1
8877,123,Larynx,Sham,Tone,Clear,142,5,1,0.451116999960504,1
8878,123,Larynx,Sham,Tone,Clear,143,1,0,0.666407500044443,1
8879,123,Larynx,Sham,Tone,Clear,144,4,1,0.48867160000372706,1
8880,123,Larynx,Sham,Tone,Clear,145,1,1,0.39384939998853996,1
8881,123,Larynx,Sham,Tone,Clear,146,4,1,0.618862500065006,1
8882,123,Larynx,Sham,Tone,Clear,147,3,1,0.49511789996177,1
8883,123,Larynx,Sham,Tone,Clear,148,2,1,0.399345900048502,1
8884,123,Larynx,Sham,Tone,Clear,149,2,0,0.98884869995527,1
8885,123,Larynx,Sham,Tone,Clear,150,5,1,0.38784760003909496,1
8886,123,Larynx,Sham,Tone,Clear,151,3,1,0.45995139994192896,1
8887,123,Larynx,Sham,Tone,Clear,152,4,1,0.462737299967557,1
8888,123,Larynx,Sham,Tone,Clear,153,5,1,0.48224730009678796,1
8889,123,Larynx,Sham,Tone,Clear,154,1,0,0.5293886999133971,1
8890,123,Larynx,Sham,Tone,Clear,155,2,0,0.574470699997619,1
8891,123,Larynx,Sham,Tone,Clear,156,3,1,0.427681299974211,1
10608,139,Larynx,Right iTBS,Tone,Clear,1,3,0,1.09112979995552,1
10609,139,Larynx,Right iTBS,Tone,Clear,2,3,0,0.988217500038445,1
10610,139,Larynx,Right iTBS,Tone,Clear,3,5,1,0.616844899952412,1
10611,139,Larynx,Right iTBS,Tone,Clear,4,1,0,0.603276600013487,1
10612,139,Larynx,Right iTBS,Tone,Clear,5,2,0,0.832913900027052,1
10613,139,Larynx,Right iTBS,Tone,Clear,6,3,1,0.658688999945298,1
10614,139,Larynx,Right iTBS,Tone,Clear,7,2,0,0.623861399944872,1
10615,139,Larynx,Right iTBS,Tone,Clear,8,2,1,1.3583867000415901,1
10616,139,Larynx,Right iTBS,Tone,Clear,9,5,1,0.664555100025609,1
10617,139,Larynx,Right iTBS,Tone,Clear,10,4,1,0.6796647000592199,1
10618,139,Larynx,Right iTBS,Tone,Clear,11,5,1,0.516347699915059,1
10619,139,Larynx,Right iTBS,Tone,Clear,12,1,0,0.639731400064193,1
10620,139,Larynx,Right iTBS,Tone,Clear,13,1,0,0.767863600049168,1
10621,139,Larynx,Right iTBS,Tone,Clear,14,4,1,0.582526999991387,1
10622,139,Larynx,Right iTBS,Tone,Clear,15,5,1,0.542811700026505,1
10623,139,Larynx,Right iTBS,Tone,Clear,16,2,0,0.48916160000953796,1
10624,139,Larynx,Right iTBS,Tone,Clear,17,4,1,0.5534638999961321,1
10625,139,Larynx,Right iTBS,Tone,Clear,18,4,1,0.7709577999776229,1
10626,139,Larynx,Right iTBS,Tone,Clear,19,3,0,0.9960818999679759,1
10627,139,Larynx,Right iTBS,Tone,Clear,20,3,1,0.595561800058931,1
10628,139,Larynx,Right iTBS,Tone,Clear,21,2,0,0.6044912999495861,1
10629,139,Larynx,Right iTBS,Tone,Clear,22,1,0,0.7204900999786329,1
10630,139,Larynx,Right iTBS,Tone,Clear,23,4,1,0.48366419994272297,1
10631,139,Larynx,Right iTBS,Tone,Clear,24,3,0,0.6533695999532939,1
10632,139,Larynx,Right iTBS,Tone,Clear,25,3,1,0.633881199988537,1
10633,139,Larynx,Right iTBS,Tone,Clear,26,3,1,0.556316200061701,1
10634,139,Larynx,Right iTBS,Tone,Clear,27,1,0,0.656692799995653,1
10635,139,Larynx,Right iTBS,Tone,Clear,28,5,1,0.6972814999753609,1
10636,139,Larynx,Right iTBS,Tone,Clear,29,2,0,0.7247144000139091,1
10637,139,Larynx,Right iTBS,Tone,Clear,30,4,0,0.554113999940455,1
10638,139,Larynx,Right iTBS,Tone,Clear,31,2,0,0.883326799958013,1
10639,139,Larynx,Right iTBS,Tone,Clear,32,3,0,1.2476368999341498,1
10640,139,Larynx,Right iTBS,Tone,Clear,33,3,1,0.754761700052768,1
10641,139,Larynx,Right iTBS,Tone,Clear,34,2,0,0.9336329000070691,1
10642,139,Larynx,Right iTBS,Tone,Clear,35,4,1,0.7112825999502091,1
10643,139,Larynx,Right iTBS,Tone,Clear,36,3,1,1.2983210999518602,1
10644,139,Larynx,Right iTBS,Tone,Clear,37,5,1,0.6900368999922649,1
10645,139,Larynx,Right iTBS,Tone,Clear,38,1,0,0.5788769000209871,1
10646,139,Larynx,Right iTBS,Tone,Clear,39,4,1,0.8092783999163661,1
10647,139,Larynx,Right iTBS,Tone,Clear,40,5,1,0.7633821999188509,1
10648,139,Larynx,Right iTBS,Tone,Clear,41,3,0,1.00580309994984,1
10649,139,Larynx,Right iTBS,Tone,Clear,42,3,0,1.4791289999848203,1
10650,139,Larynx,Right iTBS,Tone,Clear,43,4,1,0.5586195000214499,1
10651,139,Larynx,Right iTBS,Tone,Clear,44,3,1,0.933656000066549,1
10652,139,Larynx,Right iTBS,Tone,Clear,45,4,1,0.685563200036995,1
10653,139,Larynx,Right iTBS,Tone,Clear,46,1,0,0.721959499991499,1
10654,139,Larynx,Right iTBS,Tone,Clear,47,3,0,1.0535218999721099,1
10655,139,Larynx,Right iTBS,Tone,Clear,48,2,0,0.794296200037934,1
10656,139,Larynx,Right iTBS,Tone,Clear,49,1,0,0.6089401000645009,1
10657,139,Larynx,Right iTBS,Tone,Clear,50,4,1,0.5793817000230771,1
10658,139,Larynx,Right iTBS,Tone,Clear,51,3,1,0.960133599932306,1
10659,139,Larynx,Right iTBS,Tone,Clear,52,3,1,0.66759990004357,1
10660,139,Larynx,Right iTBS,Tone,Clear,53,1,0,0.47754909994546296,1
10661,139,Larynx,Right iTBS,Tone,Clear,54,5,1,0.532069799955934,1
10662,139,Larynx,Right iTBS,Tone,Clear,55,2,0,0.5911417000461371,1
10663,139,Larynx,Right iTBS,Tone,Clear,56,1,0,0.62858680007048,1
10664,139,Larynx,Right iTBS,Tone,Clear,57,4,1,0.603377199964598,1
10665,139,Larynx,Right iTBS,Tone,Clear,58,4,1,0.6269611000316221,1
10666,139,Larynx,Right iTBS,Tone,Clear,59,2,0,0.642099800053984,1
10667,139,Larynx,Right iTBS,Tone,Clear,60,2,0,0.728359800064936,1
10668,139,Larynx,Right iTBS,Tone,Clear,61,4,1,0.540924999979325,1
10669,139,Larynx,Right iTBS,Tone,Clear,62,3,1,0.857683999929577,1
10670,139,Larynx,Right iTBS,Tone,Clear,63,2,0,0.66791189997457,1
10671,139,Larynx,Right iTBS,Tone,Clear,64,3,0,1.0340105999494,1
10672,139,Larynx,Right iTBS,Tone,Clear,65,3,1,1.08937119995244,1
10673,139,Larynx,Right iTBS,Tone,Clear,66,5,1,0.6487326999194921,1
10674,139,Larynx,Right iTBS,Tone,Clear,67,2,0,0.6609105999814351,1
10675,139,Larynx,Right iTBS,Tone,Clear,68,2,0,0.8678983999416229,1
10676,139,Larynx,Right iTBS,Tone,Clear,69,4,1,0.645724899950437,1
10677,139,Larynx,Right iTBS,Tone,Clear,70,5,1,0.5945946000283578,1
10678,139,Larynx,Right iTBS,Tone,Clear,71,1,0,0.560948700061999,1
10679,139,Larynx,Right iTBS,Tone,Clear,72,5,1,0.668213999946602,1
10680,139,Larynx,Right iTBS,Tone,Clear,73,1,0,0.733964999904856,1
10681,139,Larynx,Right iTBS,Tone,Clear,74,4,1,0.545473899925128,1
10682,139,Larynx,Right iTBS,Tone,Clear,75,3,1,1.03594670002349,1
10683,139,Larynx,Right iTBS,Tone,Clear,76,2,0,0.637365199974738,1
10684,139,Larynx,Right iTBS,Tone,Clear,77,3,1,1.21789870003704,1
10685,139,Larynx,Right iTBS,Tone,Clear,78,5,1,0.657622400089167,1
10686,139,Larynx,Right iTBS,Tone,Clear,79,4,1,0.712367999949493,1
10687,139,Larynx,Right iTBS,Tone,Clear,80,5,1,0.734592100023292,1
10688,139,Larynx,Right iTBS,Tone,Clear,81,2,0,0.8118796999333431,1
10689,139,Larynx,Right iTBS,Tone,Clear,82,3,0,1.32603050000034,1
10690,139,Larynx,Right iTBS,Tone,Clear,83,4,1,0.62598709994927,1
10691,139,Larynx,Right iTBS,Tone,Clear,84,4,1,0.6482706000097099,1
10692,139,Larynx,Right iTBS,Tone,Clear,85,2,0,0.698402300011367,1
10693,139,Larynx,Right iTBS,Tone,Clear,86,2,0,0.794100000057369,1
10694,139,Larynx,Right iTBS,Tone,Clear,87,3,1,1.35199459991418,1
10695,139,Larynx,Right iTBS,Tone,Clear,88,5,1,0.632334999972954,1
10696,139,Larynx,Right iTBS,Tone,Clear,89,1,0,0.6793971000006421,1
10697,139,Larynx,Right iTBS,Tone,Clear,90,4,1,0.654372000019066,1
10698,139,Larynx,Right iTBS,Tone,Clear,91,3,0,1.49367419991177,1
10699,139,Larynx,Right iTBS,Tone,Clear,92,1,0,0.7395302000222729,1
10700,139,Larynx,Right iTBS,Tone,Clear,93,3,0,1.04570910008624,1
10701,139,Larynx,Right iTBS,Tone,Clear,94,3,1,0.669602800044231,1
10702,139,Larynx,Right iTBS,Tone,Clear,95,1,0,0.9461623999523,1
10703,139,Larynx,Right iTBS,Tone,Clear,96,2,0,0.8439038000069559,1
10704,139,Larynx,Right iTBS,Tone,Clear,97,5,1,0.6418200000189239,1
10705,139,Larynx,Right iTBS,Tone,Clear,98,5,1,0.651455800049007,1
10706,139,Larynx,Right iTBS,Tone,Clear,99,4,1,1.03242639999371,1
10707,139,Larynx,Right iTBS,Tone,Clear,100,3,0,0.7657414000714201,1
10708,139,Larynx,Right iTBS,Tone,Clear,101,3,0,0.8405226999893779,1
10709,139,Larynx,Right iTBS,Tone,Clear,102,5,1,0.810822900035419,1
10710,139,Larynx,Right iTBS,Tone,Clear,103,4,1,0.8175098000792791,1
10711,139,Larynx,Right iTBS,Tone,Clear,104,3,0,0.740124800009653,1
10712,139,Larynx,Right iTBS,Tone,Clear,105,2,0,0.705471500055864,1
10713,139,Larynx,Right iTBS,Tone,Clear,106,4,1,0.5244652000255879,1
10714,139,Larynx,Right iTBS,Tone,Clear,107,1,0,0.637016900000162,1
10715,139,Larynx,Right iTBS,Tone,Clear,108,1,0,0.638696899986826,1
10716,139,Larynx,Right iTBS,Tone,Clear,109,3,1,1.1147065000841399,1
10717,139,Larynx,Right iTBS,Tone,Clear,110,2,0,0.822262599947862,1
10718,139,Larynx,Right iTBS,Tone,Clear,111,1,0,0.704650399973616,1
10719,139,Larynx,Right iTBS,Tone,Clear,112,5,1,0.508295099949464,1
10720,139,Larynx,Right iTBS,Tone,Clear,113,2,0,0.548213199945167,1
10721,139,Larynx,Right iTBS,Tone,Clear,114,4,1,0.828179799951613,1
10722,139,Larynx,Right iTBS,Tone,Clear,115,3,0,1.1658939999761102,1
10723,139,Larynx,Right iTBS,Tone,Clear,116,3,0,0.10534310003276899,1
10724,139,Larynx,Right iTBS,Tone,Clear,117,2,0,1.26927080005407,1
10725,139,Larynx,Right iTBS,Tone,Clear,118,1,0,0.924422499956563,1
10726,139,Larynx,Right iTBS,Tone,Clear,119,4,1,0.582170699955896,1
10727,139,Larynx,Right iTBS,Tone,Clear,120,4,1,0.651069399900734,1
10728,139,Larynx,Right iTBS,Tone,Clear,121,2,0,0.847230900079012,1
10729,139,Larynx,Right iTBS,Tone,Clear,122,1,0,0.933536299970001,1
10730,139,Larynx,Right iTBS,Tone,Clear,123,2,0,0.598520300001837,1
10731,139,Larynx,Right iTBS,Tone,Clear,124,5,1,0.448983700014651,1
10732,139,Larynx,Right iTBS,Tone,Clear,125,4,1,0.513632400077768,1
10733,139,Larynx,Right iTBS,Tone,Clear,126,2,0,0.7226447000866759,1
10734,139,Larynx,Right iTBS,Tone,Clear,127,3,0,0.903313499991782,1
10735,139,Larynx,Right iTBS,Tone,Clear,128,4,1,0.70676019997336,1
10736,139,Larynx,Right iTBS,Tone,Clear,129,3,0,0.732131400029175,1
10737,139,Larynx,Right iTBS,Tone,Clear,130,1,0,0.8967732000164691,1
10738,139,Larynx,Right iTBS,Tone,Clear,131,2,0,0.688836600049399,1
10739,139,Larynx,Right iTBS,Tone,Clear,132,1,0,0.715505299973302,1
10740,139,Larynx,Right iTBS,Tone,Clear,133,3,1,0.6286406000144781,1
10741,139,Larynx,Right iTBS,Tone,Clear,134,4,1,0.4803755000466479,1
10742,139,Larynx,Right iTBS,Tone,Clear,135,3,0,0.805433999979869,1
10743,139,Larynx,Right iTBS,Tone,Clear,136,3,0,0.6996060000965371,1
10744,139,Larynx,Right iTBS,Tone,Clear,137,5,1,0.531980099971406,1
10745,139,Larynx,Right iTBS,Tone,Clear,138,2,0,0.7583328000037,1
10746,139,Larynx,Right iTBS,Tone,Clear,139,3,0,1.19240860000718,1
10747,139,Larynx,Right iTBS,Tone,Clear,140,2,0,0.9686640999279921,1
10748,139,Larynx,Right iTBS,Tone,Clear,141,5,1,0.7467276999959721,1
10749,139,Larynx,Right iTBS,Tone,Clear,142,3,0,0.879722699988633,1
10750,139,Larynx,Right iTBS,Tone,Clear,143,5,1,0.8139328999677672,1
10751,139,Larynx,Right iTBS,Tone,Clear,144,2,0,0.687486700015143,1
10752,139,Larynx,Right iTBS,Tone,Clear,145,3,0,0.7684295000508431,1
10753,139,Larynx,Right iTBS,Tone,Clear,146,1,0,0.921166900079697,1
10754,139,Larynx,Right iTBS,Tone,Clear,147,3,1,0.9918223000131551,1
10755,139,Larynx,Right iTBS,Tone,Clear,148,4,1,0.586585200042464,1
10756,139,Larynx,Right iTBS,Tone,Clear,149,4,1,0.9365938999690121,1
10757,139,Larynx,Right iTBS,Tone,Clear,150,2,0,0.9319083000300451,1
10758,139,Larynx,Right iTBS,Tone,Clear,151,5,1,0.643499099998735,1
10759,139,Larynx,Right iTBS,Tone,Clear,152,3,0,1.0055070000235,1
10760,139,Larynx,Right iTBS,Tone,Clear,153,3,0,1.10928410000633,1
10761,139,Larynx,Right iTBS,Tone,Clear,154,5,1,0.604644200066105,1
10762,139,Larynx,Right iTBS,Tone,Clear,155,4,1,0.946796100004576,1
10763,139,Larynx,Right iTBS,Tone,Clear,156,1,0,0.6596983999479561,1
11856,139,Larynx,Sham,Tone,Clear,1,4,1,0.7818881000057439,1
11857,139,Larynx,Sham,Tone,Clear,2,2,0,0.474503099998401,1
11858,139,Larynx,Sham,Tone,Clear,3,2,0,0.8289355000015349,1
11859,139,Larynx,Sham,Tone,Clear,4,3,1,0.8213532999943709,1
11860,139,Larynx,Sham,Tone,Clear,5,3,0,0.8579582000020308,1
11861,139,Larynx,Sham,Tone,Clear,6,3,1,0.8422052000023539,1
11862,139,Larynx,Sham,Tone,Clear,7,4,1,0.924107899998489,1
11863,139,Larynx,Sham,Tone,Clear,8,1,0,0.534117300005164,1
11864,139,Larynx,Sham,Tone,Clear,9,1,0,0.654547600002843,1
11865,139,Larynx,Sham,Tone,Clear,10,2,1,0.9475633999973071,1
11866,139,Larynx,Sham,Tone,Clear,11,2,1,1.16263679999975,1
11867,139,Larynx,Sham,Tone,Clear,12,4,1,0.7266509999972192,1
11868,139,Larynx,Sham,Tone,Clear,13,5,1,0.635464899998624,1
11869,139,Larynx,Sham,Tone,Clear,14,5,1,0.6407045000014481,1
11870,139,Larynx,Sham,Tone,Clear,15,3,0,1.03630870000052,1
11871,139,Larynx,Sham,Tone,Clear,16,2,0,0.640642000005755,1
11872,139,Larynx,Sham,Tone,Clear,17,4,1,0.5327541000006021,1
11873,139,Larynx,Sham,Tone,Clear,18,1,0,0.629667599998356,1
11874,139,Larynx,Sham,Tone,Clear,19,1,0,0.650240099996154,1
11875,139,Larynx,Sham,Tone,Clear,20,3,1,0.7652082999993579,1
11876,139,Larynx,Sham,Tone,Clear,21,3,1,0.976534200002789,1
11877,139,Larynx,Sham,Tone,Clear,22,2,0,0.6062581999940451,1
11878,139,Larynx,Sham,Tone,Clear,23,5,1,0.720507999998517,1
11879,139,Larynx,Sham,Tone,Clear,24,4,1,0.6542747000057719,1
11880,139,Larynx,Sham,Tone,Clear,25,5,1,0.5918234000055239,1
11881,139,Larynx,Sham,Tone,Clear,26,3,1,1.24599359999411,1
11882,139,Larynx,Sham,Tone,Clear,27,4,1,0.723858199999086,1
11883,139,Larynx,Sham,Tone,Clear,28,3,1,1.16821319999872,1
11884,139,Larynx,Sham,Tone,Clear,29,1,0,0.939424799995322,1
11885,139,Larynx,Sham,Tone,Clear,30,5,1,0.7689411999963341,1
11886,139,Larynx,Sham,Tone,Clear,31,1,0,1.1178507000004199,1
11887,139,Larynx,Sham,Tone,Clear,32,3,1,0.8216577999992299,1
11888,139,Larynx,Sham,Tone,Clear,33,5,1,0.9942571999999928,1
11889,139,Larynx,Sham,Tone,Clear,34,3,1,0.7156738000048791,1
11890,139,Larynx,Sham,Tone,Clear,35,3,1,0.782960900003673,1
11891,139,Larynx,Sham,Tone,Clear,36,2,0,0.6268137000006391,1
11892,139,Larynx,Sham,Tone,Clear,37,4,1,0.7273927999995071,1
11893,139,Larynx,Sham,Tone,Clear,38,2,0,0.8453384999957049,1
11894,139,Larynx,Sham,Tone,Clear,39,4,1,0.7477916999996519,1
11895,139,Larynx,Sham,Tone,Clear,40,2,0,0.6292791000014399,1
11896,139,Larynx,Sham,Tone,Clear,41,3,1,0.944041800001287,1
11897,139,Larynx,Sham,Tone,Clear,42,5,1,0.5913465999983599,1
11898,139,Larynx,Sham,Tone,Clear,43,4,1,0.7035443999993729,1
11899,139,Larynx,Sham,Tone,Clear,44,1,0,0.514717199999723,1
11900,139,Larynx,Sham,Tone,Clear,45,2,0,0.740770999997039,1
11901,139,Larynx,Sham,Tone,Clear,46,5,1,0.509855600001174,1
11902,139,Larynx,Sham,Tone,Clear,47,1,0,0.704761799999687,1
11903,139,Larynx,Sham,Tone,Clear,48,3,1,0.7613093000036321,1
11904,139,Larynx,Sham,Tone,Clear,49,1,0,0.6823277000003151,1
11905,139,Larynx,Sham,Tone,Clear,50,3,1,0.689872599999944,1
11906,139,Larynx,Sham,Tone,Clear,51,1,0,0.7639194000003041,1
11907,139,Larynx,Sham,Tone,Clear,52,4,1,0.535447399997793,1
11908,139,Larynx,Sham,Tone,Clear,53,5,1,0.6592779000056911,1
11909,139,Larynx,Sham,Tone,Clear,54,4,1,0.6194306999968829,1
11910,139,Larynx,Sham,Tone,Clear,55,4,1,0.593677500000922,1
11911,139,Larynx,Sham,Tone,Clear,56,5,1,0.6616082999971701,1
11912,139,Larynx,Sham,Tone,Clear,57,2,0,0.6824909000060869,1
11913,139,Larynx,Sham,Tone,Clear,58,2,0,0.9078526000012059,1
11914,139,Larynx,Sham,Tone,Clear,59,5,1,0.49659190000238596,1
11915,139,Larynx,Sham,Tone,Clear,60,3,0,0.935720100002072,1
11916,139,Larynx,Sham,Tone,Clear,61,3,0,1.2564859999984,1
11917,139,Larynx,Sham,Tone,Clear,62,4,1,0.679918300003919,1
11918,139,Larynx,Sham,Tone,Clear,63,2,0,0.966023499997391,1
11919,139,Larynx,Sham,Tone,Clear,64,2,0,0.7535679000066009,1
11920,139,Larynx,Sham,Tone,Clear,65,1,0,0.647378699999535,1
11921,139,Larynx,Sham,Tone,Clear,66,4,1,0.7148979000048711,1
11922,139,Larynx,Sham,Tone,Clear,67,3,1,0.944946000003256,1
11923,139,Larynx,Sham,Tone,Clear,68,3,0,0.8909580000035929,1
11924,139,Larynx,Sham,Tone,Clear,69,3,1,0.921047300005739,1
11925,139,Larynx,Sham,Tone,Clear,70,4,1,0.806048300000839,1
11926,139,Larynx,Sham,Tone,Clear,71,5,1,0.705060699998285,1
11927,139,Larynx,Sham,Tone,Clear,72,2,0,0.6801640000048791,1
11928,139,Larynx,Sham,Tone,Clear,73,2,0,0.753046300000278,1
11929,139,Larynx,Sham,Tone,Clear,74,3,1,1.1144152999986499,1
11930,139,Larynx,Sham,Tone,Clear,75,3,1,1.1567321000038602,1
11931,139,Larynx,Sham,Tone,Clear,76,3,0,1.2700989000004501,1
11932,139,Larynx,Sham,Tone,Clear,77,1,0,0.768865500001994,1
11933,139,Larynx,Sham,Tone,Clear,78,4,1,0.626293299996178,1
11934,139,Larynx,Sham,Tone,Clear,79,2,0,0.734229999994568,1
11935,139,Larynx,Sham,Tone,Clear,80,4,1,0.608526700001676,1
11936,139,Larynx,Sham,Tone,Clear,81,2,0,0.75957699999708,1
11937,139,Larynx,Sham,Tone,Clear,82,3,1,0.6424994000044529,1
11938,139,Larynx,Sham,Tone,Clear,83,2,0,0.617680700001074,1
11939,139,Larynx,Sham,Tone,Clear,84,5,1,0.636349499996868,1
11940,139,Larynx,Sham,Tone,Clear,85,3,1,0.940243900004134,1
11941,139,Larynx,Sham,Tone,Clear,86,5,1,0.773711999994703,1
11942,139,Larynx,Sham,Tone,Clear,87,4,1,0.7522823000035709,1
11943,139,Larynx,Sham,Tone,Clear,88,4,1,0.755126299998665,1
11944,139,Larynx,Sham,Tone,Clear,89,1,0,0.506969000001845,1
11945,139,Larynx,Sham,Tone,Clear,90,3,1,0.839482800001861,1
11946,139,Larynx,Sham,Tone,Clear,91,5,1,0.6266680000044289,1
11947,139,Larynx,Sham,Tone,Clear,92,4,1,0.6780990999977801,1
11948,139,Larynx,Sham,Tone,Clear,93,2,0,0.52025390000199,1
11949,139,Larynx,Sham,Tone,Clear,94,3,1,0.7404550999999631,1
11950,139,Larynx,Sham,Tone,Clear,95,2,0,0.6626823999977199,1
11951,139,Larynx,Sham,Tone,Clear,96,5,1,0.675790999994206,1
11952,139,Larynx,Sham,Tone,Clear,97,3,1,0.9689770000040879,1
11953,139,Larynx,Sham,Tone,Clear,98,3,0,1.2611064000011498,1
11954,139,Larynx,Sham,Tone,Clear,99,2,0,0.652551500003028,1
11955,139,Larynx,Sham,Tone,Clear,100,1,0,0.8188312999991469,1
11956,139,Larynx,Sham,Tone,Clear,101,4,1,0.6463943999988261,1
11957,139,Larynx,Sham,Tone,Clear,102,1,0,1.28056469999865,1
11958,139,Larynx,Sham,Tone,Clear,103,3,0,1.1047488999975,1
11959,139,Larynx,Sham,Tone,Clear,104,4,1,0.834365599999728,1
11960,139,Larynx,Sham,Tone,Clear,105,4,1,0.7303549999996899,1
11961,139,Larynx,Sham,Tone,Clear,106,1,0,0.45527949999814205,1
11962,139,Larynx,Sham,Tone,Clear,107,2,0,0.662805499996466,1
11963,139,Larynx,Sham,Tone,Clear,108,3,1,0.8781639000008,1
11964,139,Larynx,Sham,Tone,Clear,109,5,1,0.8462883999964109,1
11965,139,Larynx,Sham,Tone,Clear,110,4,1,0.803627699999197,1
11966,139,Larynx,Sham,Tone,Clear,111,5,1,0.7521474000022859,1
11967,139,Larynx,Sham,Tone,Clear,112,3,0,0.774296099996718,1
11968,139,Larynx,Sham,Tone,Clear,113,2,0,0.6338414000056221,1
11969,139,Larynx,Sham,Tone,Clear,114,3,1,0.8481987000050141,1
11970,139,Larynx,Sham,Tone,Clear,115,3,1,0.7427033999993001,1
11971,139,Larynx,Sham,Tone,Clear,116,1,0,0.587384600003134,1
11972,139,Larynx,Sham,Tone,Clear,117,1,0,0.7078622000044559,1
11973,139,Larynx,Sham,Tone,Clear,118,5,1,0.6275120999998759,1
11974,139,Larynx,Sham,Tone,Clear,119,4,1,0.520007999999507,1
11975,139,Larynx,Sham,Tone,Clear,120,3,1,1.0395989000026,1
11976,139,Larynx,Sham,Tone,Clear,121,4,1,0.799060799996369,1
11977,139,Larynx,Sham,Tone,Clear,122,3,0,0.9335671000008009,1
11978,139,Larynx,Sham,Tone,Clear,123,4,1,0.812313199996424,1
11979,139,Larynx,Sham,Tone,Clear,124,2,0,0.604376299997966,1
11980,139,Larynx,Sham,Tone,Clear,125,5,1,0.640508700002101,1
11981,139,Larynx,Sham,Tone,Clear,126,1,0,0.8759916999988492,1
11982,139,Larynx,Sham,Tone,Clear,127,2,0,0.635131700000784,1
11983,139,Larynx,Sham,Tone,Clear,128,3,1,0.8369953000001259,1
11984,139,Larynx,Sham,Tone,Clear,129,3,0,0.927637199994933,1
11985,139,Larynx,Sham,Tone,Clear,130,4,1,0.9477592999974151,1
11986,139,Larynx,Sham,Tone,Clear,131,3,0,1.04990270000417,1
11987,139,Larynx,Sham,Tone,Clear,132,2,0,0.83275020000292,1
11988,139,Larynx,Sham,Tone,Clear,133,4,1,0.6768851000015269,1
11989,139,Larynx,Sham,Tone,Clear,134,3,1,0.84143259999837,1
11990,139,Larynx,Sham,Tone,Clear,135,5,1,0.6606649000023029,1
11991,139,Larynx,Sham,Tone,Clear,136,3,0,0.786249099997804,1
11992,139,Larynx,Sham,Tone,Clear,137,2,0,0.712410899999668,1
11993,139,Larynx,Sham,Tone,Clear,138,3,1,0.6879818999950661,1
11994,139,Larynx,Sham,Tone,Clear,139,1,0,0.697483799995098,1
11995,139,Larynx,Sham,Tone,Clear,140,2,0,0.6991788999948771,1
11996,139,Larynx,Sham,Tone,Clear,141,1,0,0.8692941000044809,1
11997,139,Larynx,Sham,Tone,Clear,142,5,1,0.544607299998461,1
11998,139,Larynx,Sham,Tone,Clear,143,1,0,0.799251799995545,1
11999,139,Larynx,Sham,Tone,Clear,144,4,1,0.768605899997056,1
12000,139,Larynx,Sham,Tone,Clear,145,1,0,0.621584099993925,1
12001,139,Larynx,Sham,Tone,Clear,146,4,1,0.761611499998253,1
12002,139,Larynx,Sham,Tone,Clear,147,3,1,0.943563599998015,1
12003,139,Larynx,Sham,Tone,Clear,148,2,0,0.5724847000019511,1
12004,139,Larynx,Sham,Tone,Clear,149,2,0,0.681649499994819,1
12005,139,Larynx,Sham,Tone,Clear,150,5,1,0.588431500000297,1
12006,139,Larynx,Sham,Tone,Clear,151,3,1,1.22443850000127,1
12007,139,Larynx,Sham,Tone,Clear,152,4,1,0.625571700002183,1
12008,139,Larynx,Sham,Tone,Clear,153,5,1,0.8194507000007429,1
12009,139,Larynx,Sham,Tone,Clear,154,1,0,0.6437414000029089,1
12010,139,Larynx,Sham,Tone,Clear,155,2,0,0.76219790000323,1
12011,139,Larynx,Sham,Tone,Clear,156,3,1,0.8359131999968671,1
13728,142,Larynx,Right iTBS,Tone,Clear,1,3,0,0.7286730999767309,1
13729,142,Larynx,Right iTBS,Tone,Clear,2,3,1,0.538646900007734,1
13730,142,Larynx,Right iTBS,Tone,Clear,3,5,1,0.5486975999956479,1
13731,142,Larynx,Right iTBS,Tone,Clear,4,1,0,0.519865000009304,1
13732,142,Larynx,Right iTBS,Tone,Clear,5,2,0,0.582679599989206,1
13733,142,Larynx,Right iTBS,Tone,Clear,6,3,1,0.635199900018051,1
13734,142,Larynx,Right iTBS,Tone,Clear,7,2,1,0.693679700023495,1
13735,142,Larynx,Right iTBS,Tone,Clear,8,2,1,0.7719257999851831,1
13736,142,Larynx,Right iTBS,Tone,Clear,9,5,1,0.698126600007527,1
13737,142,Larynx,Right iTBS,Tone,Clear,10,4,1,0.5460695000074339,1
13738,142,Larynx,Right iTBS,Tone,Clear,11,5,1,0.677095999999437,1
13739,142,Larynx,Right iTBS,Tone,Clear,12,1,0,0.511369399988325,1
13740,142,Larynx,Right iTBS,Tone,Clear,13,1,0,0.46510390000185,1
13741,142,Larynx,Right iTBS,Tone,Clear,14,4,1,0.43957749998662604,1
13742,142,Larynx,Right iTBS,Tone,Clear,15,5,1,0.47981099999742605,1
13743,142,Larynx,Right iTBS,Tone,Clear,16,2,0,0.475771199999144,1
13744,142,Larynx,Right iTBS,Tone,Clear,17,4,1,0.660155599995051,1
13745,142,Larynx,Right iTBS,Tone,Clear,18,4,1,0.52265840000473,1
13746,142,Larynx,Right iTBS,Tone,Clear,19,3,1,0.520090600010008,1
13747,142,Larynx,Right iTBS,Tone,Clear,20,3,1,0.556489800015697,1
13748,142,Larynx,Right iTBS,Tone,Clear,21,2,0,0.505116499989526,1
13749,142,Larynx,Right iTBS,Tone,Clear,22,1,0,0.546145400003297,1
13750,142,Larynx,Right iTBS,Tone,Clear,23,4,1,0.42573359998641497,1
13751,142,Larynx,Right iTBS,Tone,Clear,24,3,1,0.647345300007146,1
13752,142,Larynx,Right iTBS,Tone,Clear,25,3,1,0.588084000017261,1
13753,142,Larynx,Right iTBS,Tone,Clear,26,3,1,0.564068400010001,1
13754,142,Larynx,Right iTBS,Tone,Clear,27,1,0,0.58575229998678,1
13755,142,Larynx,Right iTBS,Tone,Clear,28,5,1,0.568826200003969,1
13756,142,Larynx,Right iTBS,Tone,Clear,29,2,0,0.715679700020701,1
13757,142,Larynx,Right iTBS,Tone,Clear,30,4,1,0.535331599996425,1
13758,142,Larynx,Right iTBS,Tone,Clear,31,2,0,0.682959700003266,1
13759,142,Larynx,Right iTBS,Tone,Clear,32,3,1,0.459673500008648,1
13760,142,Larynx,Right iTBS,Tone,Clear,33,3,1,0.628684700001031,1
13761,142,Larynx,Right iTBS,Tone,Clear,34,2,0,0.6663072000083051,1
13762,142,Larynx,Right iTBS,Tone,Clear,35,4,1,0.521356499986723,1
13763,142,Larynx,Right iTBS,Tone,Clear,36,3,1,0.600985500001116,1
13764,142,Larynx,Right iTBS,Tone,Clear,37,5,1,0.6069662999943829,1
13765,142,Larynx,Right iTBS,Tone,Clear,38,1,0,0.523950300004799,1
13766,142,Larynx,Right iTBS,Tone,Clear,39,4,1,0.48347360000479994,1
13767,142,Larynx,Right iTBS,Tone,Clear,40,5,1,0.5018013000080829,1
13768,142,Larynx,Right iTBS,Tone,Clear,41,3,1,0.7262016999884509,1
13769,142,Larynx,Right iTBS,Tone,Clear,42,3,1,0.841696100018453,1
13770,142,Larynx,Right iTBS,Tone,Clear,43,4,1,0.670100700022886,1
13771,142,Larynx,Right iTBS,Tone,Clear,44,3,1,0.638808699994115,1
13772,142,Larynx,Right iTBS,Tone,Clear,45,4,1,0.616937600017991,1
13773,142,Larynx,Right iTBS,Tone,Clear,46,1,0,0.548474100010935,1
13774,142,Larynx,Right iTBS,Tone,Clear,47,3,1,0.8963761999912091,1
13775,142,Larynx,Right iTBS,Tone,Clear,48,2,1,0.617467999982182,1
13776,142,Larynx,Right iTBS,Tone,Clear,49,1,0,0.8267015999881551,1
13777,142,Larynx,Right iTBS,Tone,Clear,50,4,1,0.5827020999859089,1
13778,142,Larynx,Right iTBS,Tone,Clear,51,3,1,0.9001224000239741,1
13779,142,Larynx,Right iTBS,Tone,Clear,52,3,1,0.6371616999967961,1
13780,142,Larynx,Right iTBS,Tone,Clear,53,1,0,0.449964500003261,1
13781,142,Larynx,Right iTBS,Tone,Clear,54,5,1,0.48895040000206796,1
13782,142,Larynx,Right iTBS,Tone,Clear,55,2,0,0.53120980001404,1
13783,142,Larynx,Right iTBS,Tone,Clear,56,1,0,0.5851236000016801,1
13784,142,Larynx,Right iTBS,Tone,Clear,57,4,1,0.545929700019769,1
13785,142,Larynx,Right iTBS,Tone,Clear,58,4,1,0.5728062999842221,1
13786,142,Larynx,Right iTBS,Tone,Clear,59,2,0,0.643381200003205,1
13787,142,Larynx,Right iTBS,Tone,Clear,60,2,0,0.610058099991875,1
13788,142,Larynx,Right iTBS,Tone,Clear,61,4,1,0.4694775000098161,1
13789,142,Larynx,Right iTBS,Tone,Clear,62,3,1,0.676624000014272,1
13790,142,Larynx,Right iTBS,Tone,Clear,63,2,0,0.554890499974135,1
13791,142,Larynx,Right iTBS,Tone,Clear,64,3,1,0.41889309999533003,1
13792,142,Larynx,Right iTBS,Tone,Clear,65,3,1,0.60895980001078,1
13793,142,Larynx,Right iTBS,Tone,Clear,66,5,1,0.47116299998015204,1
13794,142,Larynx,Right iTBS,Tone,Clear,67,2,0,0.650047599978279,1
13795,142,Larynx,Right iTBS,Tone,Clear,68,2,0,0.6061392000119671,1
13796,142,Larynx,Right iTBS,Tone,Clear,69,4,1,0.5078030999866311,1
13797,142,Larynx,Right iTBS,Tone,Clear,70,5,1,0.6283746999979479,1
13798,142,Larynx,Right iTBS,Tone,Clear,71,1,0,0.507721500005573,1
13799,142,Larynx,Right iTBS,Tone,Clear,72,5,1,0.442358300002525,1
13800,142,Larynx,Right iTBS,Tone,Clear,73,1,0,0.580008700024337,1
13801,142,Larynx,Right iTBS,Tone,Clear,74,4,1,0.4235106999985871,1
13802,142,Larynx,Right iTBS,Tone,Clear,75,3,1,0.622891999984859,1
13803,142,Larynx,Right iTBS,Tone,Clear,76,2,0,0.5666190999909301,1
13804,142,Larynx,Right iTBS,Tone,Clear,77,3,0,0.601572899991879,1
13805,142,Larynx,Right iTBS,Tone,Clear,78,5,1,0.4141896000073761,1
13806,142,Larynx,Right iTBS,Tone,Clear,79,4,1,0.5970678000012409,1
13807,142,Larynx,Right iTBS,Tone,Clear,80,5,1,0.50539549998939,1
13808,142,Larynx,Right iTBS,Tone,Clear,81,2,0,0.567690399999265,1
13809,142,Larynx,Right iTBS,Tone,Clear,82,3,1,0.776564599975245,1
13810,142,Larynx,Right iTBS,Tone,Clear,83,4,1,0.7649344000092241,1
13811,142,Larynx,Right iTBS,Tone,Clear,84,4,1,0.554065300006187,1
13812,142,Larynx,Right iTBS,Tone,Clear,85,2,0,0.57412989999284,1
13813,142,Larynx,Right iTBS,Tone,Clear,86,2,0,0.7370750999834851,1
13814,142,Larynx,Right iTBS,Tone,Clear,87,3,0,0.7602966999984351,1
13815,142,Larynx,Right iTBS,Tone,Clear,88,5,1,0.431194999982836,1
13816,142,Larynx,Right iTBS,Tone,Clear,89,1,0,0.6329246999812309,1
13817,142,Larynx,Right iTBS,Tone,Clear,90,4,1,0.440759999997681,1
13818,142,Larynx,Right iTBS,Tone,Clear,91,3,1,0.839337600016734,1
13819,142,Larynx,Right iTBS,Tone,Clear,92,1,0,0.628162099979818,1
13820,142,Larynx,Right iTBS,Tone,Clear,93,3,0,0.646796600020025,1
13821,142,Larynx,Right iTBS,Tone,Clear,94,3,1,0.811953900003573,1
13822,142,Larynx,Right iTBS,Tone,Clear,95,1,0,0.514938399981475,1
13823,142,Larynx,Right iTBS,Tone,Clear,96,2,0,0.6485482999996751,1
13824,142,Larynx,Right iTBS,Tone,Clear,97,5,1,0.460668400017312,1
13825,142,Larynx,Right iTBS,Tone,Clear,98,5,1,0.5041632000065871,1
13826,142,Larynx,Right iTBS,Tone,Clear,99,4,1,0.572130699991249,1
13827,142,Larynx,Right iTBS,Tone,Clear,100,3,0,0.7795350999804209,1
13828,142,Larynx,Right iTBS,Tone,Clear,101,3,0,0.6357243999955239,1
13829,142,Larynx,Right iTBS,Tone,Clear,102,5,1,0.43521969998255394,1
13830,142,Larynx,Right iTBS,Tone,Clear,103,4,1,0.564763500005938,1
13831,142,Larynx,Right iTBS,Tone,Clear,104,3,1,0.6568016999808609,1
13832,142,Larynx,Right iTBS,Tone,Clear,105,2,0,0.508852600003593,1
13833,142,Larynx,Right iTBS,Tone,Clear,106,4,1,0.571640200010734,1
13834,142,Larynx,Right iTBS,Tone,Clear,107,1,0,0.48752389999572204,1
13835,142,Larynx,Right iTBS,Tone,Clear,108,1,0,0.601713999989443,1
13836,142,Larynx,Right iTBS,Tone,Clear,109,3,1,0.42315580000285996,1
13837,142,Larynx,Right iTBS,Tone,Clear,110,2,0,0.655385300022317,1
13838,142,Larynx,Right iTBS,Tone,Clear,111,1,0,0.5343196999747309,1
13839,142,Larynx,Right iTBS,Tone,Clear,112,5,1,0.4094075000029989,1
13840,142,Larynx,Right iTBS,Tone,Clear,113,2,1,0.50556809999398,1
13841,142,Larynx,Right iTBS,Tone,Clear,114,4,1,0.777014199993573,1
13842,142,Larynx,Right iTBS,Tone,Clear,115,3,1,0.705102800013265,1
13843,142,Larynx,Right iTBS,Tone,Clear,116,3,1,0.589696700015338,1
13844,142,Larynx,Right iTBS,Tone,Clear,117,2,0,0.493912300007651,1
13845,142,Larynx,Right iTBS,Tone,Clear,118,1,0,0.5035878999915441,1
13846,142,Larynx,Right iTBS,Tone,Clear,119,4,1,0.418218500009971,1
13847,142,Larynx,Right iTBS,Tone,Clear,120,4,1,0.526635600021109,1
13848,142,Larynx,Right iTBS,Tone,Clear,121,2,0,0.6646093000017571,1
13849,142,Larynx,Right iTBS,Tone,Clear,122,1,0,0.641906900011236,1
13850,142,Larynx,Right iTBS,Tone,Clear,123,2,0,0.8194924000126779,1
13851,142,Larynx,Right iTBS,Tone,Clear,124,5,1,0.49635980001767205,1
13852,142,Larynx,Right iTBS,Tone,Clear,125,4,1,0.490575900010299,1
13853,142,Larynx,Right iTBS,Tone,Clear,126,2,0,0.547253299999284,1
13854,142,Larynx,Right iTBS,Tone,Clear,127,3,1,0.5143211999966301,1
13855,142,Larynx,Right iTBS,Tone,Clear,128,4,1,0.645568899984937,1
13856,142,Larynx,Right iTBS,Tone,Clear,129,3,1,0.743933499994455,1
13857,142,Larynx,Right iTBS,Tone,Clear,130,1,0,0.555529800010845,1
13858,142,Larynx,Right iTBS,Tone,Clear,131,2,0,0.551193699997384,1
13859,142,Larynx,Right iTBS,Tone,Clear,132,1,0,0.558065599994734,1
13860,142,Larynx,Right iTBS,Tone,Clear,133,3,1,0.802901399991242,1
13861,142,Larynx,Right iTBS,Tone,Clear,134,4,1,0.544826199999079,1
13862,142,Larynx,Right iTBS,Tone,Clear,135,3,1,0.582895200001076,1
13863,142,Larynx,Right iTBS,Tone,Clear,136,3,1,0.505847499996889,1
13864,142,Larynx,Right iTBS,Tone,Clear,137,5,1,0.561394699994707,1
13865,142,Larynx,Right iTBS,Tone,Clear,138,2,0,0.6391742000123489,1
13866,142,Larynx,Right iTBS,Tone,Clear,139,3,0,0.781347099982668,1
13867,142,Larynx,Right iTBS,Tone,Clear,140,2,0,0.5272825000283771,1
13868,142,Larynx,Right iTBS,Tone,Clear,141,5,1,0.51665650002542,1
13869,142,Larynx,Right iTBS,Tone,Clear,142,3,1,0.659686099999817,1
13870,142,Larynx,Right iTBS,Tone,Clear,143,5,1,0.623354700015625,1
13871,142,Larynx,Right iTBS,Tone,Clear,144,2,0,0.5726016999979039,1
13872,142,Larynx,Right iTBS,Tone,Clear,145,3,0,0.666159299988067,1
13873,142,Larynx,Right iTBS,Tone,Clear,146,1,0,0.61367180000525,1
13874,142,Larynx,Right iTBS,Tone,Clear,147,3,1,0.7817847999976949,1
13875,142,Larynx,Right iTBS,Tone,Clear,148,4,1,0.692223499994725,1
13876,142,Larynx,Right iTBS,Tone,Clear,149,4,1,0.572435599984601,1
13877,142,Larynx,Right iTBS,Tone,Clear,150,2,0,0.661822699999902,1
13878,142,Larynx,Right iTBS,Tone,Clear,151,5,1,0.4933735000086021,1
13879,142,Larynx,Right iTBS,Tone,Clear,152,3,0,0.7063999999954829,1
13880,142,Larynx,Right iTBS,Tone,Clear,153,3,1,0.588043700001435,1
13881,142,Larynx,Right iTBS,Tone,Clear,154,5,1,0.5934340999810961,1
13882,142,Larynx,Right iTBS,Tone,Clear,155,4,1,0.657837499980815,1
13883,142,Larynx,Right iTBS,Tone,Clear,156,1,0,0.5825136000057679,1
14976,142,Larynx,Sham,Tone,Clear,1,3,1,0.8087832999990501,1
14977,142,Larynx,Sham,Tone,Clear,2,4,1,0.651761999997689,1
14978,142,Larynx,Sham,Tone,Clear,3,2,0,0.511792999997851,1
14979,142,Larynx,Sham,Tone,Clear,4,5,1,0.6303017000027471,1
14980,142,Larynx,Sham,Tone,Clear,5,2,0,0.48858699999982497,1
14981,142,Larynx,Sham,Tone,Clear,6,3,1,0.8353018999987399,1
14982,142,Larynx,Sham,Tone,Clear,7,2,0,0.48307209999984496,1
14983,142,Larynx,Sham,Tone,Clear,8,5,1,0.657168600002478,1
14984,142,Larynx,Sham,Tone,Clear,9,1,0,0.46935229999871797,1
14985,142,Larynx,Sham,Tone,Clear,10,3,1,0.652590400000918,1
14986,142,Larynx,Sham,Tone,Clear,11,4,1,0.6769163000026309,1
14987,142,Larynx,Sham,Tone,Clear,12,3,1,0.675862899999629,1
14988,142,Larynx,Sham,Tone,Clear,13,5,1,0.619618400000036,1
14989,142,Larynx,Sham,Tone,Clear,14,4,1,0.516843900000822,1
14990,142,Larynx,Sham,Tone,Clear,15,4,1,0.5366593999970061,1
14991,142,Larynx,Sham,Tone,Clear,16,2,0,0.57842630000232,1
14992,142,Larynx,Sham,Tone,Clear,17,4,1,0.550445099997887,1
14993,142,Larynx,Sham,Tone,Clear,18,3,1,0.5708909999993921,1
14994,142,Larynx,Sham,Tone,Clear,19,1,0,0.620979600000283,1
14995,142,Larynx,Sham,Tone,Clear,20,2,0,0.540837399999873,1
14996,142,Larynx,Sham,Tone,Clear,21,3,1,0.8080004000003101,1
14997,142,Larynx,Sham,Tone,Clear,22,5,1,0.542599599997629,1
14998,142,Larynx,Sham,Tone,Clear,23,4,1,0.552406400001928,1
14999,142,Larynx,Sham,Tone,Clear,24,1,0,0.552370000001247,1
15000,142,Larynx,Sham,Tone,Clear,25,5,1,0.5598554999996851,1
15001,142,Larynx,Sham,Tone,Clear,26,2,1,0.622430300001724,1
15002,142,Larynx,Sham,Tone,Clear,27,3,0,0.813523699998768,1
15003,142,Larynx,Sham,Tone,Clear,28,1,0,0.5948156999984351,1
15004,142,Larynx,Sham,Tone,Clear,29,4,1,0.44679610000093795,1
15005,142,Larynx,Sham,Tone,Clear,30,1,0,0.499539600001299,1
15006,142,Larynx,Sham,Tone,Clear,31,1,0,0.6333526999987951,1
15007,142,Larynx,Sham,Tone,Clear,32,3,1,0.4532198999986579,1
15008,142,Larynx,Sham,Tone,Clear,33,5,1,0.6722283000017341,1
15009,142,Larynx,Sham,Tone,Clear,34,2,0,0.67599639999753,1
15010,142,Larynx,Sham,Tone,Clear,35,4,1,0.749935600000754,1
15011,142,Larynx,Sham,Tone,Clear,36,2,0,0.568952100002207,1
15012,142,Larynx,Sham,Tone,Clear,37,3,0,0.9022146999996041,1
15013,142,Larynx,Sham,Tone,Clear,38,3,0,0.704153100003168,1
15014,142,Larynx,Sham,Tone,Clear,39,3,1,0.583991300001799,1
15015,142,Larynx,Sham,Tone,Clear,40,2,0,0.531860700000834,1
15016,142,Larynx,Sham,Tone,Clear,41,4,1,0.557287300001917,1
15017,142,Larynx,Sham,Tone,Clear,42,4,1,0.559631500000251,1
15018,142,Larynx,Sham,Tone,Clear,43,2,0,0.61000520000016,1
15019,142,Larynx,Sham,Tone,Clear,44,3,0,0.707400100000086,1
15020,142,Larynx,Sham,Tone,Clear,45,3,0,0.7043478000014151,1
15021,142,Larynx,Sham,Tone,Clear,46,1,0,0.814026199997897,1
15022,142,Larynx,Sham,Tone,Clear,47,4,1,0.665942499999801,1
15023,142,Larynx,Sham,Tone,Clear,48,3,1,0.861360400002013,1
15024,142,Larynx,Sham,Tone,Clear,49,2,0,1.0537690999990401,1
15025,142,Larynx,Sham,Tone,Clear,50,5,1,0.693134100001771,1
15026,142,Larynx,Sham,Tone,Clear,51,1,0,0.5647647000005239,1
15027,142,Larynx,Sham,Tone,Clear,52,5,1,0.767477499997767,1
15028,142,Larynx,Sham,Tone,Clear,53,4,1,0.85844139999972,1
15029,142,Larynx,Sham,Tone,Clear,54,3,0,0.620215499999176,1
15030,142,Larynx,Sham,Tone,Clear,55,1,0,0.608660900001269,1
15031,142,Larynx,Sham,Tone,Clear,56,5,1,0.6121327000000749,1
15032,142,Larynx,Sham,Tone,Clear,57,3,1,0.9635854000007379,1
15033,142,Larynx,Sham,Tone,Clear,58,4,1,0.5908930000005059,1
15034,142,Larynx,Sham,Tone,Clear,59,3,1,0.8547513000012259,1
15035,142,Larynx,Sham,Tone,Clear,60,2,0,0.666601799999626,1
15036,142,Larynx,Sham,Tone,Clear,61,3,1,0.7132375000001051,1
15037,142,Larynx,Sham,Tone,Clear,62,3,1,0.693375200000446,1
15038,142,Larynx,Sham,Tone,Clear,63,2,0,0.652589599998464,1
15039,142,Larynx,Sham,Tone,Clear,64,5,1,0.505249600002571,1
15040,142,Larynx,Sham,Tone,Clear,65,5,1,0.668856699998287,1
15041,142,Larynx,Sham,Tone,Clear,66,1,0,1.01711639999849,1
15042,142,Larynx,Sham,Tone,Clear,67,3,0,0.62037920000148,1
15043,142,Larynx,Sham,Tone,Clear,68,4,1,0.47998469999947707,1
15044,142,Larynx,Sham,Tone,Clear,69,2,0,0.7690017999993871,1
15045,142,Larynx,Sham,Tone,Clear,70,3,1,0.872353399998246,1
15046,142,Larynx,Sham,Tone,Clear,71,3,1,0.639430200000788,1
15047,142,Larynx,Sham,Tone,Clear,72,2,0,0.666951900002459,1
15048,142,Larynx,Sham,Tone,Clear,73,1,0,0.571693899997626,1
15049,142,Larynx,Sham,Tone,Clear,74,4,1,0.45514589999947896,1
15050,142,Larynx,Sham,Tone,Clear,75,5,1,0.5243818999988429,1
15051,142,Larynx,Sham,Tone,Clear,76,1,0,0.51521860000139,1
15052,142,Larynx,Sham,Tone,Clear,77,2,0,0.623258699997677,1
15053,142,Larynx,Sham,Tone,Clear,78,4,1,0.473383700002159,1
15054,142,Larynx,Sham,Tone,Clear,79,3,0,0.679572400000325,1
15055,142,Larynx,Sham,Tone,Clear,80,4,1,0.532841300002474,1
15056,142,Larynx,Sham,Tone,Clear,81,2,0,0.6036792000013521,1
15057,142,Larynx,Sham,Tone,Clear,82,1,0,0.688067700000829,1
15058,142,Larynx,Sham,Tone,Clear,83,1,0,0.6157725000011851,1
15059,142,Larynx,Sham,Tone,Clear,84,3,1,0.458898699998826,1
15060,142,Larynx,Sham,Tone,Clear,85,3,1,0.61453430000256,1
15061,142,Larynx,Sham,Tone,Clear,86,5,1,0.657674699999916,1
15062,142,Larynx,Sham,Tone,Clear,87,5,1,0.581027000000176,1
15063,142,Larynx,Sham,Tone,Clear,88,3,1,0.7146152999994231,1
15064,142,Larynx,Sham,Tone,Clear,89,3,1,0.72960779999994,1
15065,142,Larynx,Sham,Tone,Clear,90,3,1,0.7356418999988821,1
15066,142,Larynx,Sham,Tone,Clear,91,4,1,0.580538899997919,1
15067,142,Larynx,Sham,Tone,Clear,92,2,0,0.546563300002163,1
15068,142,Larynx,Sham,Tone,Clear,93,3,0,0.54187119999915,1
15069,142,Larynx,Sham,Tone,Clear,94,4,1,0.707200199998624,1
15070,142,Larynx,Sham,Tone,Clear,95,5,1,0.5851617999978771,1
15071,142,Larynx,Sham,Tone,Clear,96,4,1,0.564779799999087,1
15072,142,Larynx,Sham,Tone,Clear,97,5,1,0.567665200000192,1
15073,142,Larynx,Sham,Tone,Clear,98,3,1,0.812413699997705,1
15074,142,Larynx,Sham,Tone,Clear,99,2,1,0.528701699997328,1
15075,142,Larynx,Sham,Tone,Clear,100,3,1,0.8228591000006421,1
15076,142,Larynx,Sham,Tone,Clear,101,4,1,0.7377899000020991,1
15077,142,Larynx,Sham,Tone,Clear,102,1,0,0.466491200000746,1
15078,142,Larynx,Sham,Tone,Clear,103,1,0,0.533158400001412,1
15079,142,Larynx,Sham,Tone,Clear,104,2,1,0.644257799998741,1
15080,142,Larynx,Sham,Tone,Clear,105,2,0,0.71463379999841,1
15081,142,Larynx,Sham,Tone,Clear,106,5,1,0.578486999998859,1
15082,142,Larynx,Sham,Tone,Clear,107,4,1,0.518386700001429,1
15083,142,Larynx,Sham,Tone,Clear,108,2,0,0.6228504999999129,1
15084,142,Larynx,Sham,Tone,Clear,109,4,1,0.455499100000452,1
15085,142,Larynx,Sham,Tone,Clear,110,2,0,0.995764399998734,1
15086,142,Larynx,Sham,Tone,Clear,111,3,0,0.507828000001609,1
15087,142,Larynx,Sham,Tone,Clear,112,1,0,0.59986729999946,1
15088,142,Larynx,Sham,Tone,Clear,113,1,0,0.5471672999992729,1
15089,142,Larynx,Sham,Tone,Clear,114,3,1,0.6812492999997629,1
15090,142,Larynx,Sham,Tone,Clear,115,4,1,0.47473100000206603,1
15091,142,Larynx,Sham,Tone,Clear,116,2,0,0.6224579000008821,1
15092,142,Larynx,Sham,Tone,Clear,117,5,1,0.519211999999243,1
15093,142,Larynx,Sham,Tone,Clear,118,3,1,0.881771300002583,1
15094,142,Larynx,Sham,Tone,Clear,119,3,1,0.9627128000029191,1
15095,142,Larynx,Sham,Tone,Clear,120,2,0,0.48242329999993705,1
15096,142,Larynx,Sham,Tone,Clear,121,1,0,0.5088407999974149,1
15097,142,Larynx,Sham,Tone,Clear,122,3,1,0.608102900001541,1
15098,142,Larynx,Sham,Tone,Clear,123,3,1,0.7499115999999051,1
15099,142,Larynx,Sham,Tone,Clear,124,2,0,0.582231500000489,1
15100,142,Larynx,Sham,Tone,Clear,125,1,0,0.520295399997849,1
15101,142,Larynx,Sham,Tone,Clear,126,4,1,0.468881499997224,1
15102,142,Larynx,Sham,Tone,Clear,127,4,1,0.438388800001121,1
15103,142,Larynx,Sham,Tone,Clear,128,5,1,0.579004200000782,1
15104,142,Larynx,Sham,Tone,Clear,129,5,1,0.41856100000222796,1
15105,142,Larynx,Sham,Tone,Clear,130,5,1,0.43395629999940905,1
15106,142,Larynx,Sham,Tone,Clear,131,3,1,0.8176485000003589,1
15107,142,Larynx,Sham,Tone,Clear,132,1,0,0.522930600000109,1
15108,142,Larynx,Sham,Tone,Clear,133,1,0,0.5444588999998811,1
15109,142,Larynx,Sham,Tone,Clear,134,2,0,0.6002687000000151,1
15110,142,Larynx,Sham,Tone,Clear,135,2,1,0.768291800002771,1
15111,142,Larynx,Sham,Tone,Clear,136,2,0,0.611867199997505,1
15112,142,Larynx,Sham,Tone,Clear,137,5,1,0.472377900001447,1
15113,142,Larynx,Sham,Tone,Clear,138,5,1,0.43301400000200396,1
15114,142,Larynx,Sham,Tone,Clear,139,4,1,0.368925400001899,1
15115,142,Larynx,Sham,Tone,Clear,140,4,1,0.509214900001098,1
15116,142,Larynx,Sham,Tone,Clear,141,2,1,0.400075800000195,1
15117,142,Larynx,Sham,Tone,Clear,142,2,0,0.6285365999974599,1
15118,142,Larynx,Sham,Tone,Clear,143,4,1,0.675903000003018,1
15119,142,Larynx,Sham,Tone,Clear,144,5,1,0.676254400001199,1
15120,142,Larynx,Sham,Tone,Clear,145,3,0,0.8004701999998359,1
15121,142,Larynx,Sham,Tone,Clear,146,3,0,0.698065900000074,1
15122,142,Larynx,Sham,Tone,Clear,147,3,1,0.4078776000023939,1
15123,142,Larynx,Sham,Tone,Clear,148,3,1,0.7441371999993859,1
15124,142,Larynx,Sham,Tone,Clear,149,3,1,0.830113600000914,1
15125,142,Larynx,Sham,Tone,Clear,150,4,1,0.605691100001422,1
15126,142,Larynx,Sham,Tone,Clear,151,4,1,0.553839600001083,1
15127,142,Larynx,Sham,Tone,Clear,152,4,1,0.549799699998403,1
15128,142,Larynx,Sham,Tone,Clear,153,1,0,0.654564799999207,1
15129,142,Larynx,Sham,Tone,Clear,154,3,1,0.543077400001494,1
15130,142,Larynx,Sham,Tone,Clear,155,1,0,0.7954256000011809,1
15131,142,Larynx,Sham,Tone,Clear,156,2,0,0.6478581000010311,1
16848,201,Larynx,Right iTBS,Tone,Clear,1,3,1,1.6654612000566,1
16849,201,Larynx,Right iTBS,Tone,Clear,2,3,1,0.7945847000228241,1
16850,201,Larynx,Right iTBS,Tone,Clear,3,5,1,0.7521216999739408,1
16851,201,Larynx,Right iTBS,Tone,Clear,4,1,0,0.676828499999829,1
16852,201,Larynx,Right iTBS,Tone,Clear,5,2,0,0.877636899938807,1
16853,201,Larynx,Right iTBS,Tone,Clear,6,3,1,1.4874949000077302,1
16854,201,Larynx,Right iTBS,Tone,Clear,7,2,1,1.02105310000479,1
16855,201,Larynx,Right iTBS,Tone,Clear,8,2,0,0.7034803000278771,1
16856,201,Larynx,Right iTBS,Tone,Clear,9,5,1,0.675690499949269,1
16857,201,Larynx,Right iTBS,Tone,Clear,10,4,1,0.59403159993235,1
16858,201,Larynx,Right iTBS,Tone,Clear,11,5,1,0.6963291000574828,1
16859,201,Larynx,Right iTBS,Tone,Clear,12,1,0,0.641520099947229,1
16860,201,Larynx,Right iTBS,Tone,Clear,13,1,0,0.660747500020079,1
16861,201,Larynx,Right iTBS,Tone,Clear,14,4,1,0.758100499981083,1
16862,201,Larynx,Right iTBS,Tone,Clear,15,5,1,0.558541800011881,1
16863,201,Larynx,Right iTBS,Tone,Clear,16,2,1,1.62451449991204,1
16864,201,Larynx,Right iTBS,Tone,Clear,17,4,1,0.6027772999368609,1
16865,201,Larynx,Right iTBS,Tone,Clear,18,4,1,0.592017099959776,1
16866,201,Larynx,Right iTBS,Tone,Clear,19,3,1,0.712318200035952,1
16867,201,Larynx,Right iTBS,Tone,Clear,20,3,0,0.869271600036882,1
16868,201,Larynx,Right iTBS,Tone,Clear,21,2,0,0.603430500021204,1
16869,201,Larynx,Right iTBS,Tone,Clear,22,1,0,0.641428099945188,1
16870,201,Larynx,Right iTBS,Tone,Clear,23,4,1,0.638569200062193,1
16871,201,Larynx,Right iTBS,Tone,Clear,24,3,1,0.798235299997032,1
16872,201,Larynx,Right iTBS,Tone,Clear,25,3,1,0.691492300014943,1
16873,201,Larynx,Right iTBS,Tone,Clear,26,3,1,0.86851729999762,1
16874,201,Larynx,Right iTBS,Tone,Clear,27,1,0,0.58944110001903,1
