,subj_idx,group_idx,turn_type,task_type,snr_type,trial_num,step_att,response,rt,step_unatnd
1560,55,Larynx,Right iTBS,Tone,Noise,1,2,0,2.19361550000031,1
1561,55,Larynx,Right iTBS,Tone,Noise,2,2,0,2.6543538999976604,1
1562,55,Larynx,Right iTBS,Tone,Noise,3,1,0,2.43350339995231,1
1563,55,Larynx,Right iTBS,Tone,Noise,4,4,0,3.16041380004026,1
1564,55,Larynx,Right iTBS,Tone,Noise,5,1,0,2.7974698001053198,1
1565,55,Larynx,Right iTBS,Tone,Noise,6,4,1,1.5116937999846398,1
1566,55,Larynx,Right iTBS,Tone,Noise,7,1,0,2.19682459998876,1
1567,55,Larynx,Right iTBS,Tone,Noise,8,4,0,1.00498570001218,1
1568,55,Larynx,Right iTBS,Tone,Noise,9,5,1,0.738655199995264,1
1569,55,Larynx,Right iTBS,Tone,Noise,10,2,0,0.7229478000663221,1
1570,55,Larynx,Right iTBS,Tone,Noise,11,2,1,0.6894680999685079,1
1571,55,Larynx,Right iTBS,Tone,Noise,12,3,1,1.2200717999367001,1
1572,55,Larynx,Right iTBS,Tone,Noise,13,3,0,0.629103900049813,1
1573,55,Larynx,Right iTBS,Tone,Noise,14,4,1,0.9259797999402509,1
1574,55,Larynx,Right iTBS,Tone,Noise,15,3,0,1.1907936000498,1
1575,55,Larynx,Right iTBS,Tone,Noise,16,4,1,1.59799579996616,1
1576,55,Larynx,Right iTBS,Tone,Noise,17,3,0,0.7489724999759351,1
1577,55,Larynx,Right iTBS,Tone,Noise,18,3,0,1.13779960002285,1
1578,55,Larynx,Right iTBS,Tone,Noise,19,5,0,1.10026360000484,1
1579,55,Larynx,Right iTBS,Tone,Noise,20,2,0,1.3444461999461101,1
1580,55,Larynx,Right iTBS,Tone,Noise,21,2,1,1.2575693000108001,1
1581,55,Larynx,Right iTBS,Tone,Noise,22,4,1,0.7846797999227421,1
1582,55,Larynx,Right iTBS,Tone,Noise,23,3,1,0.6832700000377371,1
1583,55,Larynx,Right iTBS,Tone,Noise,24,3,1,2.1456698999973,1
1584,55,Larynx,Right iTBS,Tone,Noise,25,5,1,3.12635590007994,1
1585,55,Larynx,Right iTBS,Tone,Noise,26,4,1,0.891980399959721,1
1586,55,Larynx,Right iTBS,Tone,Noise,27,5,0,1.3299174999119698,1
1587,55,Larynx,Right iTBS,Tone,Noise,28,3,1,0.815946099930443,1
1588,55,Larynx,Right iTBS,Tone,Noise,29,2,0,1.4858715001028002,1
1589,55,Larynx,Right iTBS,Tone,Noise,30,5,1,1.41240070003551,1
1590,55,Larynx,Right iTBS,Tone,Noise,31,3,0,1.5913864999311,1
1591,55,Larynx,Right iTBS,Tone,Noise,32,4,1,1.4808327999198798,1
1592,55,Larynx,Right iTBS,Tone,Noise,33,3,0,0.887554700020701,1
1593,55,Larynx,Right iTBS,Tone,Noise,34,5,1,1.1778679999988502,1
1594,55,Larynx,Right iTBS,Tone,Noise,35,1,0,0.8199192999163639,1
1595,55,Larynx,Right iTBS,Tone,Noise,36,2,1,1.93086329998914,1
1596,55,Larynx,Right iTBS,Tone,Noise,37,1,1,1.58657579997089,1
1597,55,Larynx,Right iTBS,Tone,Noise,38,1,1,1.9071716000326002,1
1598,55,Larynx,Right iTBS,Tone,Noise,39,3,1,1.47558770002797,1
1599,55,Larynx,Right iTBS,Tone,Noise,40,1,1,1.3659848999232098,1
1600,55,Larynx,Right iTBS,Tone,Noise,41,2,1,0.8662940999493,1
1601,55,Larynx,Right iTBS,Tone,Noise,42,3,1,0.855304799973965,1
1602,55,Larynx,Right iTBS,Tone,Noise,43,5,1,0.7694601999828591,1
1603,55,Larynx,Right iTBS,Tone,Noise,44,4,1,0.7192905000410971,1
1604,55,Larynx,Right iTBS,Tone,Noise,45,2,1,0.8055044000502679,1
1605,55,Larynx,Right iTBS,Tone,Noise,46,5,1,0.718584200018086,1
1606,55,Larynx,Right iTBS,Tone,Noise,47,3,1,0.7174656999995931,1
1607,55,Larynx,Right iTBS,Tone,Noise,48,2,0,0.721409099991433,1
1608,55,Larynx,Right iTBS,Tone,Noise,49,1,0,0.59218530007638,1
1609,55,Larynx,Right iTBS,Tone,Noise,50,3,1,0.771794000058435,1
1610,55,Larynx,Right iTBS,Tone,Noise,51,5,1,0.81286100007128,1
1611,55,Larynx,Right iTBS,Tone,Noise,52,4,1,0.873321200022474,1
1612,55,Larynx,Right iTBS,Tone,Noise,53,3,0,0.692520200042054,1
1613,55,Larynx,Right iTBS,Tone,Noise,54,3,1,1.27526130003389,1
1614,55,Larynx,Right iTBS,Tone,Noise,55,3,0,1.3361243000254,1
1615,55,Larynx,Right iTBS,Tone,Noise,56,5,0,0.969263599952683,1
1616,55,Larynx,Right iTBS,Tone,Noise,57,4,0,1.5754263999406202,1
1617,55,Larynx,Right iTBS,Tone,Noise,58,2,1,0.682470100000501,1
1618,55,Larynx,Right iTBS,Tone,Noise,59,2,0,2.06665229995269,1
1619,55,Larynx,Right iTBS,Tone,Noise,60,1,1,1.34506949991919,1
1620,55,Larynx,Right iTBS,Tone,Noise,61,4,1,1.1385983000509399,1
1621,55,Larynx,Right iTBS,Tone,Noise,62,2,1,0.7070500999689101,1
1622,55,Larynx,Right iTBS,Tone,Noise,63,3,1,0.765309100039303,1
1623,55,Larynx,Right iTBS,Tone,Noise,64,4,1,0.8133067999733609,1
1624,55,Larynx,Right iTBS,Tone,Noise,65,3,0,2.1365193000529,1
1625,55,Larynx,Right iTBS,Tone,Noise,66,3,1,0.790431400062516,1
1626,55,Larynx,Right iTBS,Tone,Noise,67,4,1,0.7148462999612092,1
1627,55,Larynx,Right iTBS,Tone,Noise,68,1,0,0.925593400024809,1
1628,55,Larynx,Right iTBS,Tone,Noise,69,5,1,0.6772236999822779,1
1629,55,Larynx,Right iTBS,Tone,Noise,70,1,0,0.978257500100881,1
1630,55,Larynx,Right iTBS,Tone,Noise,71,2,1,0.8414344999473541,1
1631,55,Larynx,Right iTBS,Tone,Noise,72,2,1,0.66249570006039,1
1632,55,Larynx,Right iTBS,Tone,Noise,73,4,0,1.28617129998747,1
1633,55,Larynx,Right iTBS,Tone,Noise,74,4,0,1.82535759999882,1
1634,55,Larynx,Right iTBS,Tone,Noise,75,5,1,1.74113770003896,1
1635,55,Larynx,Right iTBS,Tone,Noise,76,1,1,0.8507799000944941,1
1636,55,Larynx,Right iTBS,Tone,Noise,77,3,1,0.756012400030158,1
1637,55,Larynx,Right iTBS,Tone,Noise,78,3,1,0.789188700029626,1
1638,55,Larynx,Right iTBS,Tone,Noise,79,2,1,0.9760145000182091,1
1639,55,Larynx,Right iTBS,Tone,Noise,80,2,0,1.49789779994171,1
1640,55,Larynx,Right iTBS,Tone,Noise,81,1,1,1.12054160004482,1
1641,55,Larynx,Right iTBS,Tone,Noise,82,5,1,1.15665559994522,1
1642,55,Larynx,Right iTBS,Tone,Noise,83,5,1,0.6938716000877321,1
1643,55,Larynx,Right iTBS,Tone,Noise,84,2,1,0.652495400048792,1
1644,55,Larynx,Right iTBS,Tone,Noise,85,4,1,0.643688900046982,1
1645,55,Larynx,Right iTBS,Tone,Noise,86,4,1,2.1106469000224,1
1646,55,Larynx,Right iTBS,Tone,Noise,87,2,1,1.4553841999732,1
1647,55,Larynx,Right iTBS,Tone,Noise,88,2,1,1.30779810005333,1
1648,55,Larynx,Right iTBS,Tone,Noise,89,3,0,0.7371389999752859,1
1649,55,Larynx,Right iTBS,Tone,Noise,90,2,0,1.0782208000309799,1
1650,55,Larynx,Right iTBS,Tone,Noise,91,3,1,1.60881760006305,1
1651,55,Larynx,Right iTBS,Tone,Noise,92,3,1,0.872826499980874,1
1652,55,Larynx,Right iTBS,Tone,Noise,93,1,0,1.2098636999726298,1
1653,55,Larynx,Right iTBS,Tone,Noise,94,2,1,1.09149429993704,1
1654,55,Larynx,Right iTBS,Tone,Noise,95,5,1,0.916313199908473,1
1655,55,Larynx,Right iTBS,Tone,Noise,96,3,0,1.2041522999061298,1
1656,55,Larynx,Right iTBS,Tone,Noise,97,3,1,1.64400860003661,1
1657,55,Larynx,Right iTBS,Tone,Noise,98,4,1,0.920257700025104,1
1658,55,Larynx,Right iTBS,Tone,Noise,99,1,0,1.0129831999074699,1
1659,55,Larynx,Right iTBS,Tone,Noise,100,5,1,0.815202000085264,1
1660,55,Larynx,Right iTBS,Tone,Noise,101,4,1,0.8074788000667471,1
1661,55,Larynx,Right iTBS,Tone,Noise,102,3,0,0.697817599982955,1
1662,55,Larynx,Right iTBS,Tone,Noise,103,5,1,0.7096365999896079,1
1663,55,Larynx,Right iTBS,Tone,Noise,104,4,1,0.799240400083363,1
1664,55,Larynx,Right iTBS,Tone,Noise,105,1,0,0.859312999993563,1
1665,55,Larynx,Right iTBS,Tone,Noise,106,4,1,1.19176029996015,1
1666,55,Larynx,Right iTBS,Tone,Noise,107,3,1,0.862904399982654,1
1667,55,Larynx,Right iTBS,Tone,Noise,108,3,0,0.7402355999220159,1
1668,55,Larynx,Right iTBS,Tone,Noise,109,4,1,1.24683600000571,1
1669,55,Larynx,Right iTBS,Tone,Noise,110,1,0,0.768549700034782,1
1670,55,Larynx,Right iTBS,Tone,Noise,111,3,1,0.8716023999731991,1
1671,55,Larynx,Right iTBS,Tone,Noise,112,3,0,0.885400500032119,1
1672,55,Larynx,Right iTBS,Tone,Noise,113,4,0,1.5471593000693202,1
1673,55,Larynx,Right iTBS,Tone,Noise,114,3,1,1.01379930006806,1
1674,55,Larynx,Right iTBS,Tone,Noise,115,5,1,0.9749326999299229,1
1675,55,Larynx,Right iTBS,Tone,Noise,116,2,1,1.07328080001753,1
1676,55,Larynx,Right iTBS,Tone,Noise,117,1,1,0.8467750999843701,1
1677,55,Larynx,Right iTBS,Tone,Noise,118,2,0,1.00703709991649,1
1678,55,Larynx,Right iTBS,Tone,Noise,119,3,0,1.0267607999267099,1
1679,55,Larynx,Right iTBS,Tone,Noise,120,3,1,1.12798150000162,1
1680,55,Larynx,Right iTBS,Tone,Noise,121,4,1,1.12796390010044,1
1681,55,Larynx,Right iTBS,Tone,Noise,122,5,1,1.00733429996762,1
1682,55,Larynx,Right iTBS,Tone,Noise,123,5,1,0.720640699961223,1
1683,55,Larynx,Right iTBS,Tone,Noise,124,3,1,0.7585625000065191,1
1684,55,Larynx,Right iTBS,Tone,Noise,125,4,1,0.738743899972178,1
1685,55,Larynx,Right iTBS,Tone,Noise,126,3,1,1.24184000003152,1
1686,55,Larynx,Right iTBS,Tone,Noise,127,3,0,0.6352038000477479,1
1687,55,Larynx,Right iTBS,Tone,Noise,128,4,1,0.629312900011428,1
1688,55,Larynx,Right iTBS,Tone,Noise,129,4,1,0.84024990000762,1
1689,55,Larynx,Right iTBS,Tone,Noise,130,3,0,0.768675600062124,1
1690,55,Larynx,Right iTBS,Tone,Noise,131,4,1,0.668522800086066,1
1691,55,Larynx,Right iTBS,Tone,Noise,132,2,1,0.802637099986896,1
1692,55,Larynx,Right iTBS,Tone,Noise,133,4,1,0.8500526000279929,1
1693,55,Larynx,Right iTBS,Tone,Noise,134,1,0,0.7216521999798721,1
1694,55,Larynx,Right iTBS,Tone,Noise,135,5,0,1.1907431000145199,1
1695,55,Larynx,Right iTBS,Tone,Noise,136,1,0,0.790355400065891,1
1696,55,Larynx,Right iTBS,Tone,Noise,137,2,0,1.03088370000478,1
1697,55,Larynx,Right iTBS,Tone,Noise,138,4,0,0.7353473999537529,1
1698,55,Larynx,Right iTBS,Tone,Noise,139,4,1,0.7798726999899369,1
1699,55,Larynx,Right iTBS,Tone,Noise,140,5,1,1.3918901999713897,1
1700,55,Larynx,Right iTBS,Tone,Noise,141,3,0,0.696289999992587,1
1701,55,Larynx,Right iTBS,Tone,Noise,142,3,0,0.9073314999695871,1
1702,55,Larynx,Right iTBS,Tone,Noise,143,2,0,0.850654599955305,1
1703,55,Larynx,Right iTBS,Tone,Noise,144,1,0,0.6830211000051349,1
1704,55,Larynx,Right iTBS,Tone,Noise,145,1,0,0.79668219992891,1
1705,55,Larynx,Right iTBS,Tone,Noise,146,2,0,0.741642100038007,1
1706,55,Larynx,Right iTBS,Tone,Noise,147,2,0,0.975167599972337,1
1707,55,Larynx,Right iTBS,Tone,Noise,148,3,0,1.45397849997971,1
1708,55,Larynx,Right iTBS,Tone,Noise,149,2,1,0.9401006000116471,1
1709,55,Larynx,Right iTBS,Tone,Noise,150,1,0,0.6666606999933721,1
1710,55,Larynx,Right iTBS,Tone,Noise,151,2,0,0.8404890999663621,1
1711,55,Larynx,Right iTBS,Tone,Noise,152,3,0,0.6769817000022161,1
1712,55,Larynx,Right iTBS,Tone,Noise,153,3,1,0.8098321000579741,1
1713,55,Larynx,Right iTBS,Tone,Noise,154,5,0,0.5827391999773679,1
1714,55,Larynx,Right iTBS,Tone,Noise,155,5,0,1.68515550007578,1
1715,55,Larynx,Right iTBS,Tone,Noise,156,1,0,1.2855502000311398,1
2808,55,Larynx,Sham,Tone,Noise,1,3,1,2.01130639994517,1
2809,55,Larynx,Sham,Tone,Noise,2,1,1,1.08731140010059,1
2810,55,Larynx,Sham,Tone,Noise,3,3,1,1.09449879999738,1
2811,55,Larynx,Sham,Tone,Noise,4,5,0,1.21376499999315,1
2812,55,Larynx,Sham,Tone,Noise,5,2,1,0.690343399997801,1
2813,55,Larynx,Sham,Tone,Noise,6,1,1,0.5122652000281961,1
2814,55,Larynx,Sham,Tone,Noise,7,5,1,0.4605447999201721,1
2815,55,Larynx,Sham,Tone,Noise,8,1,0,0.539366599987261,1
2816,55,Larynx,Sham,Tone,Noise,9,1,1,0.503369799931534,1
2817,55,Larynx,Sham,Tone,Noise,10,3,1,0.538616199977696,1
2818,55,Larynx,Sham,Tone,Noise,11,1,1,0.49804069998208395,1
2819,55,Larynx,Sham,Tone,Noise,12,2,0,0.5991795000154531,1
2820,55,Larynx,Sham,Tone,Noise,13,2,0,0.7082104000728578,1
2821,55,Larynx,Sham,Tone,Noise,14,3,0,0.542668999987654,1
2822,55,Larynx,Sham,Tone,Noise,15,5,1,1.39201419998426,1
2823,55,Larynx,Sham,Tone,Noise,16,3,0,0.9726902000838891,1
2824,55,Larynx,Sham,Tone,Noise,17,3,0,1.05398490000516,1
2825,55,Larynx,Sham,Tone,Noise,18,4,0,0.7130913001019509,1
2826,55,Larynx,Sham,Tone,Noise,19,3,0,1.29794129997026,1
2827,55,Larynx,Sham,Tone,Noise,20,4,0,2.10636520001572,1
2828,55,Larynx,Sham,Tone,Noise,21,2,0,1.86154409998562,1
2829,55,Larynx,Sham,Tone,Noise,22,5,0,1.3756670999573501,1
2830,55,Larynx,Sham,Tone,Noise,23,2,1,1.29942289995961,1
2831,55,Larynx,Sham,Tone,Noise,24,5,1,1.39714490005281,1
2832,55,Larynx,Sham,Tone,Noise,25,5,0,1.33102599997073,1
2833,55,Larynx,Sham,Tone,Noise,26,4,0,1.35505680006463,1
2834,55,Larynx,Sham,Tone,Noise,27,4,1,1.22955020004883,1
2835,55,Larynx,Sham,Tone,Noise,28,3,0,0.6117222999455411,1
2836,55,Larynx,Sham,Tone,Noise,29,4,0,0.819820699980482,1
2837,55,Larynx,Sham,Tone,Noise,30,2,0,0.714727999991737,1
2838,55,Larynx,Sham,Tone,Noise,31,3,1,1.0259114000946299,1
2839,55,Larynx,Sham,Tone,Noise,32,4,0,0.7935035999398679,1
2840,55,Larynx,Sham,Tone,Noise,33,4,0,0.605571900028735,1
2841,55,Larynx,Sham,Tone,Noise,34,4,0,0.641479499987327,1
2842,55,Larynx,Sham,Tone,Noise,35,3,1,0.819499099976383,1
2843,55,Larynx,Sham,Tone,Noise,36,2,0,0.643667399999686,1
2844,55,Larynx,Sham,Tone,Noise,37,2,0,1.0897437999956299,1
2845,55,Larynx,Sham,Tone,Noise,38,3,0,0.6135700000450021,1
2846,55,Larynx,Sham,Tone,Noise,39,1,1,1.92114989995025,1
2847,55,Larynx,Sham,Tone,Noise,40,2,0,1.16850400005933,1
2848,55,Larynx,Sham,Tone,Noise,41,3,0,0.889654199942015,1
2849,55,Larynx,Sham,Tone,Noise,42,1,0,0.666969900019467,1
2850,55,Larynx,Sham,Tone,Noise,43,4,0,0.76637819991447,1
2851,55,Larynx,Sham,Tone,Noise,44,3,0,0.6602273000171409,1
2852,55,Larynx,Sham,Tone,Noise,45,3,0,1.26705349993426,1
2853,55,Larynx,Sham,Tone,Noise,46,1,0,0.659541300032288,1
2854,55,Larynx,Sham,Tone,Noise,47,4,0,0.6890340000391011,1
2855,55,Larynx,Sham,Tone,Noise,48,5,0,0.666303799953312,1
2856,55,Larynx,Sham,Tone,Noise,49,2,0,1.32056439993903,1
2857,55,Larynx,Sham,Tone,Noise,50,3,0,1.57801479997579,1
2858,55,Larynx,Sham,Tone,Noise,51,2,0,2.6240682998905,1
2859,55,Larynx,Sham,Tone,Noise,52,4,0,1.39617720001843,1
2860,55,Larynx,Sham,Tone,Noise,53,3,1,1.3979766999837,1
2861,55,Larynx,Sham,Tone,Noise,54,3,0,0.6823830999201159,1
2862,55,Larynx,Sham,Tone,Noise,55,5,1,1.2742736999644,1
2863,55,Larynx,Sham,Tone,Noise,56,3,0,0.666897999937646,1
2864,55,Larynx,Sham,Tone,Noise,57,2,0,0.824394700000994,1
2865,55,Larynx,Sham,Tone,Noise,58,1,0,0.859792500035837,1
2866,55,Larynx,Sham,Tone,Noise,59,2,0,0.7347166000399742,1
2867,55,Larynx,Sham,Tone,Noise,60,4,1,0.9477657999377701,1
2868,55,Larynx,Sham,Tone,Noise,61,3,0,2.47081129997969,1
2869,55,Larynx,Sham,Tone,Noise,62,5,0,0.7835535000776871,1
2870,55,Larynx,Sham,Tone,Noise,63,4,1,0.911370099987835,1
2871,55,Larynx,Sham,Tone,Noise,64,3,0,2.37796020007227,1
2872,55,Larynx,Sham,Tone,Noise,65,1,0,1.33781689999159,1
2873,55,Larynx,Sham,Tone,Noise,66,2,0,0.904237400041893,1
2874,55,Larynx,Sham,Tone,Noise,67,5,1,1.2183247000211899,1
2875,55,Larynx,Sham,Tone,Noise,68,3,0,0.66141050006263,1
2876,55,Larynx,Sham,Tone,Noise,69,5,0,0.696390900062397,1
2877,55,Larynx,Sham,Tone,Noise,70,4,0,0.894281500019133,1
2878,55,Larynx,Sham,Tone,Noise,71,5,0,2.15019169996958,1
2879,55,Larynx,Sham,Tone,Noise,72,4,0,1.02427069994155,1
2880,55,Larynx,Sham,Tone,Noise,73,1,0,0.767642999999225,1
2881,55,Larynx,Sham,Tone,Noise,74,3,0,0.803426699945703,1
2882,55,Larynx,Sham,Tone,Noise,75,1,1,0.799302899977192,1
2883,55,Larynx,Sham,Tone,Noise,76,2,0,0.6084718999918549,1
2884,55,Larynx,Sham,Tone,Noise,77,2,0,0.5994260000297801,1
2885,55,Larynx,Sham,Tone,Noise,78,4,0,1.30318470008206,1
2886,55,Larynx,Sham,Tone,Noise,79,1,1,0.874947699951008,1
2887,55,Larynx,Sham,Tone,Noise,80,3,0,1.03125549992546,1
2888,55,Larynx,Sham,Tone,Noise,81,3,0,0.647829400026239,1
2889,55,Larynx,Sham,Tone,Noise,82,1,0,0.582961500040255,1
2890,55,Larynx,Sham,Tone,Noise,83,3,1,0.746274200035259,1
2891,55,Larynx,Sham,Tone,Noise,84,2,1,1.37500560004264,1
2892,55,Larynx,Sham,Tone,Noise,85,5,0,0.940070900018327,1
2893,55,Larynx,Sham,Tone,Noise,86,3,0,1.5682862000539899,1
2894,55,Larynx,Sham,Tone,Noise,87,2,0,1.03650249994826,1
2895,55,Larynx,Sham,Tone,Noise,88,1,0,0.8331051000859592,1
2896,55,Larynx,Sham,Tone,Noise,89,4,0,0.7592271999455992,1
2897,55,Larynx,Sham,Tone,Noise,90,5,1,1.9063662000698998,1
2898,55,Larynx,Sham,Tone,Noise,91,4,0,0.93473819992505,1
2899,55,Larynx,Sham,Tone,Noise,92,3,0,0.7947772999759759,1
2900,55,Larynx,Sham,Tone,Noise,93,2,0,0.7748002000153059,1
2901,55,Larynx,Sham,Tone,Noise,94,5,1,0.7967997998930509,1
2902,55,Larynx,Sham,Tone,Noise,95,4,0,1.13933170004748,1
2903,55,Larynx,Sham,Tone,Noise,96,2,0,1.01399740006309,1
2904,55,Larynx,Sham,Tone,Noise,97,3,0,0.8269631000002851,1
2905,55,Larynx,Sham,Tone,Noise,98,2,1,1.11674520000815,1
2906,55,Larynx,Sham,Tone,Noise,99,1,0,0.646881200023927,1
2907,55,Larynx,Sham,Tone,Noise,100,2,0,0.671365599962883,1
2908,55,Larynx,Sham,Tone,Noise,101,4,0,0.8319058999186378,1
2909,55,Larynx,Sham,Tone,Noise,102,1,1,1.1726701000006898,1
2910,55,Larynx,Sham,Tone,Noise,103,4,0,0.836186600034125,1
2911,55,Larynx,Sham,Tone,Noise,104,4,0,0.937334499903955,1
2912,55,Larynx,Sham,Tone,Noise,105,2,0,0.75486829993315,1
2913,55,Larynx,Sham,Tone,Noise,106,3,1,2.17475509992801,1
2914,55,Larynx,Sham,Tone,Noise,107,5,0,0.784327999921516,1
2915,55,Larynx,Sham,Tone,Noise,108,2,1,1.03185230004601,1
2916,55,Larynx,Sham,Tone,Noise,109,5,1,0.7738280999474231,1
2917,55,Larynx,Sham,Tone,Noise,110,3,1,1.2578189000487299,1
2918,55,Larynx,Sham,Tone,Noise,111,5,0,1.3489857999375099,1
2919,55,Larynx,Sham,Tone,Noise,112,3,1,1.17792339995503,1
2920,55,Larynx,Sham,Tone,Noise,113,4,0,0.6929340000497181,1
2921,55,Larynx,Sham,Tone,Noise,114,4,0,0.7341013000113891,1
2922,55,Larynx,Sham,Tone,Noise,115,3,0,0.708226300077513,1
2923,55,Larynx,Sham,Tone,Noise,116,1,0,1.1567135999212,1
2924,55,Larynx,Sham,Tone,Noise,117,3,0,1.27742150006816,1
2925,55,Larynx,Sham,Tone,Noise,118,2,0,0.7740784999914471,1
2926,55,Larynx,Sham,Tone,Noise,119,3,0,0.761539199971594,1
2927,55,Larynx,Sham,Tone,Noise,120,1,1,0.8878500999417159,1
2928,55,Larynx,Sham,Tone,Noise,121,5,1,1.07813229993917,1
2929,55,Larynx,Sham,Tone,Noise,122,5,0,0.750248200027272,1
2930,55,Larynx,Sham,Tone,Noise,123,2,0,1.14305369998328,1
2931,55,Larynx,Sham,Tone,Noise,124,2,1,1.11040440003853,1
2932,55,Larynx,Sham,Tone,Noise,125,4,1,1.1555806000251299,1
2933,55,Larynx,Sham,Tone,Noise,126,4,1,0.7608957999618721,1
2934,55,Larynx,Sham,Tone,Noise,127,2,1,0.53100540000014,1
2935,55,Larynx,Sham,Tone,Noise,128,2,1,1.3790906999493,1
2936,55,Larynx,Sham,Tone,Noise,129,4,1,0.844286500010639,1
2937,55,Larynx,Sham,Tone,Noise,130,3,1,0.788289800053462,1
2938,55,Larynx,Sham,Tone,Noise,131,1,1,1.7608363999752301,1
2939,55,Larynx,Sham,Tone,Noise,132,2,1,2.04751319997013,1
2940,55,Larynx,Sham,Tone,Noise,133,3,0,0.9074457000242551,1
2941,55,Larynx,Sham,Tone,Noise,134,3,1,1.01146459998563,1
2942,55,Larynx,Sham,Tone,Noise,135,4,1,0.680207299999893,1
2943,55,Larynx,Sham,Tone,Noise,136,3,1,0.8309218999929731,1
2944,55,Larynx,Sham,Tone,Noise,137,4,1,1.9359390999889,1
2945,55,Larynx,Sham,Tone,Noise,138,2,0,0.497514600050636,1
2946,55,Larynx,Sham,Tone,Noise,139,1,0,0.418883099919185,1
2947,55,Larynx,Sham,Tone,Noise,140,3,0,0.45970699994359204,1
2948,55,Larynx,Sham,Tone,Noise,141,3,0,0.5351250999374321,1
2949,55,Larynx,Sham,Tone,Noise,142,5,0,0.49933520006015897,1
2950,55,Larynx,Sham,Tone,Noise,143,5,0,0.564101599971764,1
2951,55,Larynx,Sham,Tone,Noise,144,5,1,1.27066709997598,1
2952,55,Larynx,Sham,Tone,Noise,145,1,0,0.712188099976629,1
2953,55,Larynx,Sham,Tone,Noise,146,4,0,0.8448990000179041,1
2954,55,Larynx,Sham,Tone,Noise,147,3,0,0.711359199951403,1
2955,55,Larynx,Sham,Tone,Noise,148,1,0,0.9823337000561879,1
2956,55,Larynx,Sham,Tone,Noise,149,3,0,0.6983189000748101,1
2957,55,Larynx,Sham,Tone,Noise,150,1,0,0.683379599940963,1
2958,55,Larynx,Sham,Tone,Noise,151,2,0,1.92084749997593,1
2959,55,Larynx,Sham,Tone,Noise,152,4,0,0.7659305999986831,1
2960,55,Larynx,Sham,Tone,Noise,153,5,0,1.77889109996613,1
2961,55,Larynx,Sham,Tone,Noise,154,3,0,1.5171323999529698,1
2962,55,Larynx,Sham,Tone,Noise,155,3,1,1.27732610004023,1
2963,55,Larynx,Sham,Tone,Noise,156,4,0,1.0315892000217,1
4680,104,Larynx,Right iTBS,Tone,Noise,1,3,0,0.697101400000975,1
4681,104,Larynx,Right iTBS,Tone,Noise,2,4,0,0.46943629998713704,1
4682,104,Larynx,Right iTBS,Tone,Noise,3,4,0,0.5402227999875321,1
4683,104,Larynx,Right iTBS,Tone,Noise,4,5,0,0.44049539999105,1
4684,104,Larynx,Right iTBS,Tone,Noise,5,4,0,0.607807999942452,1
4685,104,Larynx,Right iTBS,Tone,Noise,6,4,1,0.522908600047231,1
4686,104,Larynx,Right iTBS,Tone,Noise,7,5,1,0.438084500026889,1
4687,104,Larynx,Right iTBS,Tone,Noise,8,5,1,0.39068730000872204,1
4688,104,Larynx,Right iTBS,Tone,Noise,9,1,0,0.48326119990088,1
4689,104,Larynx,Right iTBS,Tone,Noise,10,3,0,0.478205000050366,1
4690,104,Larynx,Right iTBS,Tone,Noise,11,5,0,0.42332249996252397,1
4691,104,Larynx,Right iTBS,Tone,Noise,12,2,1,0.48734340001828996,1
4692,104,Larynx,Right iTBS,Tone,Noise,13,3,1,0.473131199949421,1
4693,104,Larynx,Right iTBS,Tone,Noise,14,1,1,0.5318348000291729,1
4694,104,Larynx,Right iTBS,Tone,Noise,15,1,0,0.523205199977383,1
4695,104,Larynx,Right iTBS,Tone,Noise,16,2,0,0.518997499952093,1
4696,104,Larynx,Right iTBS,Tone,Noise,17,3,0,0.38575910008512393,1
4697,104,Larynx,Right iTBS,Tone,Noise,18,1,0,0.40712960006203497,1
4698,104,Larynx,Right iTBS,Tone,Noise,19,3,0,0.551568399998359,1
4699,104,Larynx,Right iTBS,Tone,Noise,20,3,0,0.572079699952155,1
4700,104,Larynx,Right iTBS,Tone,Noise,21,3,1,0.509442099952139,1
4701,104,Larynx,Right iTBS,Tone,Noise,22,4,0,0.5013860999606551,1
4702,104,Larynx,Right iTBS,Tone,Noise,23,4,0,0.40367819997482,1
4703,104,Larynx,Right iTBS,Tone,Noise,24,5,0,0.44440399995073704,1
4704,104,Larynx,Right iTBS,Tone,Noise,25,3,0,0.44233310001436604,1
4705,104,Larynx,Right iTBS,Tone,Noise,26,3,1,0.446155400015414,1
4706,104,Larynx,Right iTBS,Tone,Noise,27,3,0,0.49122790002729705,1
4707,104,Larynx,Right iTBS,Tone,Noise,28,1,0,0.44404339999891795,1
4708,104,Larynx,Right iTBS,Tone,Noise,29,4,0,0.438561599934474,1
4709,104,Larynx,Right iTBS,Tone,Noise,30,2,0,0.395852699992247,1
4710,104,Larynx,Right iTBS,Tone,Noise,31,2,0,0.365475200000219,1
4711,104,Larynx,Right iTBS,Tone,Noise,32,3,1,0.527565299998969,1
4712,104,Larynx,Right iTBS,Tone,Noise,33,4,1,0.47162020008545397,1
4713,104,Larynx,Right iTBS,Tone,Noise,34,5,0,0.44298650010023294,1
4714,104,Larynx,Right iTBS,Tone,Noise,35,2,1,0.477456400054507,1
4715,104,Larynx,Right iTBS,Tone,Noise,36,2,1,0.42025099997408705,1
4716,104,Larynx,Right iTBS,Tone,Noise,37,2,0,0.43011540011502797,1
4717,104,Larynx,Right iTBS,Tone,Noise,38,1,0,0.38640250009484606,1
4718,104,Larynx,Right iTBS,Tone,Noise,39,2,0,0.46513889997731894,1
4719,104,Larynx,Right iTBS,Tone,Noise,40,4,1,0.47649010003078707,1
4720,104,Larynx,Right iTBS,Tone,Noise,41,3,0,0.668285900028422,1
4721,104,Larynx,Right iTBS,Tone,Noise,42,4,0,0.4033388000680129,1
4722,104,Larynx,Right iTBS,Tone,Noise,43,1,0,0.373070199973881,1
4723,104,Larynx,Right iTBS,Tone,Noise,44,1,1,0.400007799966261,1
4724,104,Larynx,Right iTBS,Tone,Noise,45,2,1,0.3901515000034121,1
4725,104,Larynx,Right iTBS,Tone,Noise,46,4,0,0.472623200039379,1
4726,104,Larynx,Right iTBS,Tone,Noise,47,4,0,0.38227379997260896,1
4727,104,Larynx,Right iTBS,Tone,Noise,48,5,0,0.3941022000508379,1
4728,104,Larynx,Right iTBS,Tone,Noise,49,4,0,0.368312700069509,1
4729,104,Larynx,Right iTBS,Tone,Noise,50,2,0,0.40083980001509206,1
4730,104,Larynx,Right iTBS,Tone,Noise,51,1,0,0.503664200077765,1
4731,104,Larynx,Right iTBS,Tone,Noise,52,3,1,0.41458350000903005,1
4732,104,Larynx,Right iTBS,Tone,Noise,53,5,0,0.561683200066909,1
4733,104,Larynx,Right iTBS,Tone,Noise,54,2,0,0.359588899998926,1
4734,104,Larynx,Right iTBS,Tone,Noise,55,2,0,0.41853269992861897,1
4735,104,Larynx,Right iTBS,Tone,Noise,56,3,0,0.41061700007412605,1
4736,104,Larynx,Right iTBS,Tone,Noise,57,5,0,0.423451200011186,1
4737,104,Larynx,Right iTBS,Tone,Noise,58,3,0,0.40292330004740506,1
4738,104,Larynx,Right iTBS,Tone,Noise,59,3,0,0.42213389999233203,1
4739,104,Larynx,Right iTBS,Tone,Noise,60,2,0,0.436032700003125,1
4740,104,Larynx,Right iTBS,Tone,Noise,61,3,0,0.360968100023456,1
4741,104,Larynx,Right iTBS,Tone,Noise,62,4,0,0.383101999992505,1
4742,104,Larynx,Right iTBS,Tone,Noise,63,3,0,0.37558150000404605,1
4743,104,Larynx,Right iTBS,Tone,Noise,64,5,0,0.5581268999958411,1
4744,104,Larynx,Right iTBS,Tone,Noise,65,3,0,0.336707399925217,1
4745,104,Larynx,Right iTBS,Tone,Noise,66,3,0,0.415417799958959,1
4746,104,Larynx,Right iTBS,Tone,Noise,67,4,0,0.37463219999335706,1
4747,104,Larynx,Right iTBS,Tone,Noise,68,1,0,0.462850400013849,1
4748,104,Larynx,Right iTBS,Tone,Noise,69,3,0,0.39194480003789095,1
4749,104,Larynx,Right iTBS,Tone,Noise,70,5,0,0.397403200040571,1
4750,104,Larynx,Right iTBS,Tone,Noise,71,3,0,0.47021699999459105,1
4751,104,Larynx,Right iTBS,Tone,Noise,72,4,0,0.42307799996342493,1
4752,104,Larynx,Right iTBS,Tone,Noise,73,5,0,0.420833799988031,1
4753,104,Larynx,Right iTBS,Tone,Noise,74,2,0,0.461432199925184,1
4754,104,Larynx,Right iTBS,Tone,Noise,75,1,0,0.57126950006932,1
4755,104,Larynx,Right iTBS,Tone,Noise,76,2,0,0.398468900006264,1
4756,104,Larynx,Right iTBS,Tone,Noise,77,1,0,0.3816455999622121,1
4757,104,Larynx,Right iTBS,Tone,Noise,78,2,0,0.38761340000201,1
4758,104,Larynx,Right iTBS,Tone,Noise,79,5,0,0.37385110009927297,1
4759,104,Larynx,Right iTBS,Tone,Noise,80,2,1,0.486096199951135,1
4760,104,Larynx,Right iTBS,Tone,Noise,81,2,1,0.44293779996223703,1
4761,104,Larynx,Right iTBS,Tone,Noise,82,2,0,0.540199500042945,1
4762,104,Larynx,Right iTBS,Tone,Noise,83,4,1,0.64233860000968,1
4763,104,Larynx,Right iTBS,Tone,Noise,84,2,0,0.4582644000183789,1
4764,104,Larynx,Right iTBS,Tone,Noise,85,2,1,0.427802499965765,1
4765,104,Larynx,Right iTBS,Tone,Noise,86,1,0,0.400686400011182,1
4766,104,Larynx,Right iTBS,Tone,Noise,87,5,1,0.47702580003533507,1
4767,104,Larynx,Right iTBS,Tone,Noise,88,5,1,0.479007699992508,1
4768,104,Larynx,Right iTBS,Tone,Noise,89,3,0,0.504331299918704,1
4769,104,Larynx,Right iTBS,Tone,Noise,90,3,0,0.626249899971299,1
4770,104,Larynx,Right iTBS,Tone,Noise,91,3,1,0.5535173000535,1
4771,104,Larynx,Right iTBS,Tone,Noise,92,4,0,0.480941300047562,1
4772,104,Larynx,Right iTBS,Tone,Noise,93,4,0,0.394650000031106,1
4773,104,Larynx,Right iTBS,Tone,Noise,94,5,1,0.5442565000848839,1
4774,104,Larynx,Right iTBS,Tone,Noise,95,4,0,0.49748109991196504,1
4775,104,Larynx,Right iTBS,Tone,Noise,96,5,0,0.5193439000286161,1
4776,104,Larynx,Right iTBS,Tone,Noise,97,1,1,0.579893399961293,1
4777,104,Larynx,Right iTBS,Tone,Noise,98,3,1,0.450209100032225,1
4778,104,Larynx,Right iTBS,Tone,Noise,99,1,1,0.39109809999354206,1
4779,104,Larynx,Right iTBS,Tone,Noise,100,3,1,0.523285700008273,1
4780,104,Larynx,Right iTBS,Tone,Noise,101,1,1,0.46275599999353295,1
4781,104,Larynx,Right iTBS,Tone,Noise,102,4,0,0.47969010006636403,1
4782,104,Larynx,Right iTBS,Tone,Noise,103,3,0,0.455304799950682,1
4783,104,Larynx,Right iTBS,Tone,Noise,104,4,0,0.42701429990120204,1
4784,104,Larynx,Right iTBS,Tone,Noise,105,2,1,0.442252699984238,1
4785,104,Larynx,Right iTBS,Tone,Noise,106,3,0,0.45123250002507104,1
4786,104,Larynx,Right iTBS,Tone,Noise,107,3,0,0.41821280005388,1
4787,104,Larynx,Right iTBS,Tone,Noise,108,5,0,0.4166264999657871,1
4788,104,Larynx,Right iTBS,Tone,Noise,109,3,1,0.407474600011483,1
4789,104,Larynx,Right iTBS,Tone,Noise,110,2,1,0.520192299969494,1
4790,104,Larynx,Right iTBS,Tone,Noise,111,1,0,0.7066477000480521,1
4791,104,Larynx,Right iTBS,Tone,Noise,112,4,0,0.511291499948129,1
4792,104,Larynx,Right iTBS,Tone,Noise,113,3,1,0.460212000063621,1
4793,104,Larynx,Right iTBS,Tone,Noise,114,4,0,0.4854091999586671,1
4794,104,Larynx,Right iTBS,Tone,Noise,115,1,1,0.452631200081669,1
4795,104,Larynx,Right iTBS,Tone,Noise,116,2,0,0.5142826000228521,1
4796,104,Larynx,Right iTBS,Tone,Noise,117,3,0,0.45448009995743605,1
4797,104,Larynx,Right iTBS,Tone,Noise,118,1,1,0.447382400045171,1
4798,104,Larynx,Right iTBS,Tone,Noise,119,3,1,0.520653799991123,1
4799,104,Larynx,Right iTBS,Tone,Noise,120,1,0,0.42273600003682105,1
4800,104,Larynx,Right iTBS,Tone,Noise,121,3,0,0.495315099949948,1
4801,104,Larynx,Right iTBS,Tone,Noise,122,2,0,0.41570170002523793,1
4802,104,Larynx,Right iTBS,Tone,Noise,123,4,1,0.599694199976511,1
4803,104,Larynx,Right iTBS,Tone,Noise,124,4,0,0.500950000016019,1
4804,104,Larynx,Right iTBS,Tone,Noise,125,3,1,0.569329400081187,1
4805,104,Larynx,Right iTBS,Tone,Noise,126,3,0,0.46986389998346595,1
4806,104,Larynx,Right iTBS,Tone,Noise,127,2,1,0.601803599973209,1
4807,104,Larynx,Right iTBS,Tone,Noise,128,4,1,0.561319799977355,1
4808,104,Larynx,Right iTBS,Tone,Noise,129,5,1,0.42903350002597995,1
4809,104,Larynx,Right iTBS,Tone,Noise,130,2,0,0.458149999962188,1
4810,104,Larynx,Right iTBS,Tone,Noise,131,1,1,0.375884699984454,1
4811,104,Larynx,Right iTBS,Tone,Noise,132,2,1,0.43526029994245596,1
4812,104,Larynx,Right iTBS,Tone,Noise,133,5,0,0.42327679996378703,1
4813,104,Larynx,Right iTBS,Tone,Noise,134,3,1,0.48535450000781605,1
4814,104,Larynx,Right iTBS,Tone,Noise,135,3,1,0.4084862000308929,1
4815,104,Larynx,Right iTBS,Tone,Noise,136,3,1,0.476996999932453,1
4816,104,Larynx,Right iTBS,Tone,Noise,137,2,0,0.531224600039423,1
4817,104,Larynx,Right iTBS,Tone,Noise,138,3,0,0.5867388000478969,1
4818,104,Larynx,Right iTBS,Tone,Noise,139,4,1,0.44165949989110204,1
4819,104,Larynx,Right iTBS,Tone,Noise,140,3,0,0.7570502000162379,1
4820,104,Larynx,Right iTBS,Tone,Noise,141,4,0,0.5069198000710461,1
4821,104,Larynx,Right iTBS,Tone,Noise,142,1,0,0.45511520002037303,1
4822,104,Larynx,Right iTBS,Tone,Noise,143,5,1,0.46243179996963596,1
4823,104,Larynx,Right iTBS,Tone,Noise,144,2,1,0.47750499995891,1
4824,104,Larynx,Right iTBS,Tone,Noise,145,3,1,0.593608599971049,1
4825,104,Larynx,Right iTBS,Tone,Noise,146,4,0,0.547235299949534,1
4826,104,Larynx,Right iTBS,Tone,Noise,147,1,0,0.53815419995226,1
4827,104,Larynx,Right iTBS,Tone,Noise,148,1,0,0.564996600034647,1
4828,104,Larynx,Right iTBS,Tone,Noise,149,2,0,0.49916430003941104,1
4829,104,Larynx,Right iTBS,Tone,Noise,150,5,1,0.404746600077488,1
4830,104,Larynx,Right iTBS,Tone,Noise,151,5,0,0.537656200001948,1
4831,104,Larynx,Right iTBS,Tone,Noise,152,5,0,0.625196799985133,1
4832,104,Larynx,Right iTBS,Tone,Noise,153,4,1,0.39396020001731796,1
4833,104,Larynx,Right iTBS,Tone,Noise,154,3,0,0.532776799984276,1
4834,104,Larynx,Right iTBS,Tone,Noise,155,2,1,0.6912341000279411,1
4835,104,Larynx,Right iTBS,Tone,Noise,156,4,1,0.43389320001006104,1
5928,104,Larynx,Sham,Tone,Noise,1,4,0,0.721078100032173,1
5929,104,Larynx,Sham,Tone,Noise,2,2,0,0.48483380000106996,1
5930,104,Larynx,Sham,Tone,Noise,3,4,1,0.5731131999636999,1
5931,104,Larynx,Sham,Tone,Noise,4,1,0,0.530742200033274,1
5932,104,Larynx,Sham,Tone,Noise,5,1,0,0.557072499999776,1
5933,104,Larynx,Sham,Tone,Noise,6,3,0,0.544112699979451,1
5934,104,Larynx,Sham,Tone,Noise,7,2,0,0.543277999968268,1
5935,104,Larynx,Sham,Tone,Noise,8,2,1,0.526052800007164,1
5936,104,Larynx,Sham,Tone,Noise,9,2,0,0.5726001999573779,1
5937,104,Larynx,Sham,Tone,Noise,10,2,0,0.565620500012301,1
5938,104,Larynx,Sham,Tone,Noise,11,4,0,0.503494700009469,1
5939,104,Larynx,Sham,Tone,Noise,12,2,0,0.604114899993874,1
5940,104,Larynx,Sham,Tone,Noise,13,3,0,0.5756124000181441,1
5941,104,Larynx,Sham,Tone,Noise,14,3,0,0.681123099988326,1
5942,104,Larynx,Sham,Tone,Noise,15,3,0,0.5594810000038709,1
5943,104,Larynx,Sham,Tone,Noise,16,1,0,0.5441355999791989,1
5944,104,Larynx,Sham,Tone,Noise,17,4,1,0.5911444000084879,1
5945,104,Larynx,Sham,Tone,Noise,18,5,0,0.6633961000479761,1
5946,104,Larynx,Sham,Tone,Noise,19,4,1,0.5838650999939999,1
5947,104,Larynx,Sham,Tone,Noise,20,5,0,0.7384013999835591,1
5948,104,Larynx,Sham,Tone,Noise,21,3,0,0.678178699978162,1
5949,104,Larynx,Sham,Tone,Noise,22,1,1,0.5476763999904509,1
5950,104,Larynx,Sham,Tone,Noise,23,3,1,0.625986099999864,1
5951,104,Larynx,Sham,Tone,Noise,24,1,1,0.582499500014819,1
5952,104,Larynx,Sham,Tone,Noise,25,3,1,0.8342295000329609,1
5953,104,Larynx,Sham,Tone,Noise,26,5,0,0.5506119999918161,1
5954,104,Larynx,Sham,Tone,Noise,27,5,0,0.56515420001233,1
5955,104,Larynx,Sham,Tone,Noise,28,4,0,0.5348902000114321,1
5956,104,Larynx,Sham,Tone,Noise,29,3,0,0.567466799984686,1
5957,104,Larynx,Sham,Tone,Noise,30,3,1,0.559918400016613,1
5958,104,Larynx,Sham,Tone,Noise,31,2,0,0.557169499981683,1
5959,104,Larynx,Sham,Tone,Noise,32,1,0,0.74911279999651,1
5960,104,Larynx,Sham,Tone,Noise,33,5,0,0.6357098000007679,1
5961,104,Larynx,Sham,Tone,Noise,34,5,0,0.585460999980569,1
5962,104,Larynx,Sham,Tone,Noise,35,4,1,0.568911100039259,1
5963,104,Larynx,Sham,Tone,Noise,36,3,1,0.564573400013614,1
5964,104,Larynx,Sham,Tone,Noise,37,3,1,0.574534600018524,1
5965,104,Larynx,Sham,Tone,Noise,38,4,1,0.657987700018566,1
5966,104,Larynx,Sham,Tone,Noise,39,2,0,0.5614317999570629,1
5967,104,Larynx,Sham,Tone,Noise,40,3,1,0.665267900039908,1
5968,104,Larynx,Sham,Tone,Noise,41,4,0,0.73318930005189,1
5969,104,Larynx,Sham,Tone,Noise,42,2,0,0.607244100014213,1
5970,104,Larynx,Sham,Tone,Noise,43,5,0,0.541152199963108,1
5971,104,Larynx,Sham,Tone,Noise,44,2,0,0.665589899988845,1
5972,104,Larynx,Sham,Tone,Noise,45,3,1,0.77681999997003,1
5973,104,Larynx,Sham,Tone,Noise,46,2,1,0.44204870000248797,1
5974,104,Larynx,Sham,Tone,Noise,47,5,1,0.537310299987439,1
5975,104,Larynx,Sham,Tone,Noise,48,1,1,0.6422468999517149,1
5976,104,Larynx,Sham,Tone,Noise,49,3,0,0.565530100022443,1
5977,104,Larynx,Sham,Tone,Noise,50,4,0,0.49788430001353795,1
5978,104,Larynx,Sham,Tone,Noise,51,3,0,0.45193039998412105,1
5979,104,Larynx,Sham,Tone,Noise,52,5,0,0.437437299988233,1
5980,104,Larynx,Sham,Tone,Noise,53,4,0,0.747971799981315,1
5981,104,Larynx,Sham,Tone,Noise,54,4,1,0.530940999975428,1
5982,104,Larynx,Sham,Tone,Noise,55,2,1,0.47309549996862205,1
5983,104,Larynx,Sham,Tone,Noise,56,4,0,0.537622400035616,1
5984,104,Larynx,Sham,Tone,Noise,57,3,0,0.492862300015986,1
5985,104,Larynx,Sham,Tone,Noise,58,1,0,0.47359499998856297,1
5986,104,Larynx,Sham,Tone,Noise,59,2,0,0.490723899973091,1
5987,104,Larynx,Sham,Tone,Noise,60,3,1,0.496119900024496,1
5988,104,Larynx,Sham,Tone,Noise,61,5,1,0.6845700000412761,1
5989,104,Larynx,Sham,Tone,Noise,62,4,0,0.6844191999989561,1
5990,104,Larynx,Sham,Tone,Noise,63,1,0,0.6096736000035891,1
5991,104,Larynx,Sham,Tone,Noise,64,5,1,0.49231960001634395,1
5992,104,Larynx,Sham,Tone,Noise,65,2,1,0.452869299973827,1
5993,104,Larynx,Sham,Tone,Noise,66,3,0,0.545471900026314,1
5994,104,Larynx,Sham,Tone,Noise,67,1,1,0.47453480004333004,1
5995,104,Larynx,Sham,Tone,Noise,68,4,0,0.561209699953906,1
5996,104,Larynx,Sham,Tone,Noise,69,1,0,0.6048969000112271,1
5997,104,Larynx,Sham,Tone,Noise,70,1,1,0.49374850001186105,1
5998,104,Larynx,Sham,Tone,Noise,71,3,1,0.473354799964,1
5999,104,Larynx,Sham,Tone,Noise,72,5,0,0.579075700021349,1
6000,104,Larynx,Sham,Tone,Noise,73,2,0,0.3917685000342321,1
6001,104,Larynx,Sham,Tone,Noise,74,4,0,0.543305600003805,1
6002,104,Larynx,Sham,Tone,Noise,75,2,0,0.431050800019875,1
6003,104,Larynx,Sham,Tone,Noise,76,3,0,0.533058500033803,1
6004,104,Larynx,Sham,Tone,Noise,77,3,0,0.6005571999703531,1
6005,104,Larynx,Sham,Tone,Noise,78,3,1,0.592700000037439,1
6006,104,Larynx,Sham,Tone,Noise,79,2,1,0.498178099980578,1
6007,104,Larynx,Sham,Tone,Noise,80,4,1,0.602714899985585,1
6008,104,Larynx,Sham,Tone,Noise,81,4,0,0.47929869999643393,1
6009,104,Larynx,Sham,Tone,Noise,82,2,0,0.46527829999104103,1
6010,104,Larynx,Sham,Tone,Noise,83,3,0,0.48799880000296997,1
6011,104,Larynx,Sham,Tone,Noise,84,3,0,0.4458218999789099,1
6012,104,Larynx,Sham,Tone,Noise,85,1,0,0.48976989998482207,1
6013,104,Larynx,Sham,Tone,Noise,86,4,1,0.5404419999686071,1
6014,104,Larynx,Sham,Tone,Noise,87,3,1,0.4778309999965129,1
6015,104,Larynx,Sham,Tone,Noise,88,2,1,0.716975499992259,1
6016,104,Larynx,Sham,Tone,Noise,89,5,0,0.5222041999804791,1
6017,104,Larynx,Sham,Tone,Noise,90,1,0,0.47537200001534097,1
6018,104,Larynx,Sham,Tone,Noise,91,5,0,0.45858600002247796,1
6019,104,Larynx,Sham,Tone,Noise,92,4,0,0.540820199996233,1
6020,104,Larynx,Sham,Tone,Noise,93,3,0,0.48614469997119203,1
6021,104,Larynx,Sham,Tone,Noise,94,1,1,0.4814085999969389,1
6022,104,Larynx,Sham,Tone,Noise,95,5,1,0.55114420002792,1
6023,104,Larynx,Sham,Tone,Noise,96,3,0,0.668481400003657,1
6024,104,Larynx,Sham,Tone,Noise,97,4,0,0.521411299996544,1
6025,104,Larynx,Sham,Tone,Noise,98,3,0,0.540208399994299,1
6026,104,Larynx,Sham,Tone,Noise,99,2,0,0.744847199996002,1
6027,104,Larynx,Sham,Tone,Noise,100,3,0,0.474689599999692,1
6028,104,Larynx,Sham,Tone,Noise,101,3,0,0.41341410001041395,1
6029,104,Larynx,Sham,Tone,Noise,102,2,0,0.4911456999834629,1
6030,104,Larynx,Sham,Tone,Noise,103,5,0,0.47191129997372605,1
6031,104,Larynx,Sham,Tone,Noise,104,5,1,0.47046559996670095,1
6032,104,Larynx,Sham,Tone,Noise,105,1,0,0.560421600006521,1
6033,104,Larynx,Sham,Tone,Noise,106,3,1,0.5007881000055929,1
6034,104,Larynx,Sham,Tone,Noise,107,4,0,0.601712499978021,1
6035,104,Larynx,Sham,Tone,Noise,108,2,1,0.509959299990442,1
6036,104,Larynx,Sham,Tone,Noise,109,3,1,0.52119749999838,1
6037,104,Larynx,Sham,Tone,Noise,110,3,1,0.44149930001003707,1
6038,104,Larynx,Sham,Tone,Noise,111,2,1,0.5515311000053771,1
6039,104,Larynx,Sham,Tone,Noise,112,1,0,0.6170075000263749,1
6040,104,Larynx,Sham,Tone,Noise,113,4,1,0.46622520004166296,1
6041,104,Larynx,Sham,Tone,Noise,114,5,0,0.495466399996076,1
6042,104,Larynx,Sham,Tone,Noise,115,1,1,0.403656199981924,1
6043,104,Larynx,Sham,Tone,Noise,116,2,0,0.7167495000176128,1
6044,104,Larynx,Sham,Tone,Noise,117,4,0,0.500442199991085,1
6045,104,Larynx,Sham,Tone,Noise,118,3,1,0.466377799981274,1
6046,104,Larynx,Sham,Tone,Noise,119,4,1,0.5511476999963629,1
6047,104,Larynx,Sham,Tone,Noise,120,2,1,0.470367399975657,1
6048,104,Larynx,Sham,Tone,Noise,121,1,0,0.601513499976136,1
6049,104,Larynx,Sham,Tone,Noise,122,1,1,0.735028699971735,1
6050,104,Larynx,Sham,Tone,Noise,123,3,1,0.538167499995325,1
6051,104,Larynx,Sham,Tone,Noise,124,3,0,0.6073021999909539,1
6052,104,Larynx,Sham,Tone,Noise,125,5,1,0.568984500016086,1
6053,104,Larynx,Sham,Tone,Noise,126,5,0,0.513225500006229,1
6054,104,Larynx,Sham,Tone,Noise,127,3,0,0.736149900010787,1
6055,104,Larynx,Sham,Tone,Noise,128,3,1,0.5280663000303321,1
6056,104,Larynx,Sham,Tone,Noise,129,3,1,0.5515596999903211,1
6057,104,Larynx,Sham,Tone,Noise,130,4,1,0.625569799973164,1
6058,104,Larynx,Sham,Tone,Noise,131,2,0,0.6369198999600489,1
6059,104,Larynx,Sham,Tone,Noise,132,3,1,0.501542199985124,1
6060,104,Larynx,Sham,Tone,Noise,133,4,1,0.539637000008952,1
6061,104,Larynx,Sham,Tone,Noise,134,5,0,0.620336699998006,1
6062,104,Larynx,Sham,Tone,Noise,135,4,1,0.580375500023365,1
6063,104,Larynx,Sham,Tone,Noise,136,5,1,0.683336600020994,1
6064,104,Larynx,Sham,Tone,Noise,137,3,0,0.6495159000041889,1
6065,104,Larynx,Sham,Tone,Noise,138,2,1,0.5070576999569311,1
6066,104,Larynx,Sham,Tone,Noise,139,3,1,0.709250800020527,1
6067,104,Larynx,Sham,Tone,Noise,140,4,0,0.612509300000966,1
6068,104,Larynx,Sham,Tone,Noise,141,1,0,0.535696999984793,1
6069,104,Larynx,Sham,Tone,Noise,142,1,0,0.6090456999954771,1
6070,104,Larynx,Sham,Tone,Noise,143,2,0,0.538134300033562,1
6071,104,Larynx,Sham,Tone,Noise,144,2,1,0.5248566000373099,1
6072,104,Larynx,Sham,Tone,Noise,145,5,1,0.7452599999960509,1
6073,104,Larynx,Sham,Tone,Noise,146,4,1,0.5981716000242161,1
6074,104,Larynx,Sham,Tone,Noise,147,2,0,0.604396100039594,1
6075,104,Larynx,Sham,Tone,Noise,148,4,0,0.615038499992806,1
6076,104,Larynx,Sham,Tone,Noise,149,2,0,0.473287599976175,1
6077,104,Larynx,Sham,Tone,Noise,150,3,0,0.585076400020625,1
6078,104,Larynx,Sham,Tone,Noise,151,1,0,0.503993599966634,1
6079,104,Larynx,Sham,Tone,Noise,152,1,0,0.5577776000136511,1
6080,104,Larynx,Sham,Tone,Noise,153,3,1,0.543309099972248,1
6081,104,Larynx,Sham,Tone,Noise,154,4,0,0.6660541000310329,1
6082,104,Larynx,Sham,Tone,Noise,155,2,0,0.660035100008827,1
6083,104,Larynx,Sham,Tone,Noise,156,5,0,0.5925278999493461,1
7800,123,Larynx,Right iTBS,Tone,Noise,1,3,1,0.988328799954616,1
7801,123,Larynx,Right iTBS,Tone,Noise,2,5,1,0.6880753999575971,1
7802,123,Larynx,Right iTBS,Tone,Noise,3,2,1,0.503730900003575,1
7803,123,Larynx,Right iTBS,Tone,Noise,4,1,1,0.672203800058924,1
7804,123,Larynx,Right iTBS,Tone,Noise,5,4,0,0.639402200002223,1
7805,123,Larynx,Right iTBS,Tone,Noise,6,5,1,0.427878399961628,1
7806,123,Larynx,Right iTBS,Tone,Noise,7,4,1,0.39024760003667297,1
7807,123,Larynx,Right iTBS,Tone,Noise,8,3,1,0.413296599988826,1
7808,123,Larynx,Right iTBS,Tone,Noise,9,3,1,0.366033099940978,1
7809,123,Larynx,Right iTBS,Tone,Noise,10,3,1,0.43642520008143,1
7810,123,Larynx,Right iTBS,Tone,Noise,11,4,1,0.475673699984327,1
7811,123,Larynx,Right iTBS,Tone,Noise,12,1,0,0.588266199920326,1
7812,123,Larynx,Right iTBS,Tone,Noise,13,3,0,0.51930619997438,1
7813,123,Larynx,Right iTBS,Tone,Noise,14,5,0,0.507446400006302,1
7814,123,Larynx,Right iTBS,Tone,Noise,15,4,1,0.45391370006837,1
7815,123,Larynx,Right iTBS,Tone,Noise,16,3,1,0.347016800078563,1
7816,123,Larynx,Right iTBS,Tone,Noise,17,1,1,0.31880719994660495,1
7817,123,Larynx,Right iTBS,Tone,Noise,18,5,0,0.569024099968374,1
7818,123,Larynx,Right iTBS,Tone,Noise,19,2,1,0.7755058000329879,1
7819,123,Larynx,Right iTBS,Tone,Noise,20,4,1,0.540753499954008,1
7820,123,Larynx,Right iTBS,Tone,Noise,21,4,1,0.46547219995409295,1
7821,123,Larynx,Right iTBS,Tone,Noise,22,4,1,0.357660099980421,1
7822,123,Larynx,Right iTBS,Tone,Noise,23,1,1,0.30194709997158503,1
7823,123,Larynx,Right iTBS,Tone,Noise,24,1,0,0.613254200085066,1
7824,123,Larynx,Right iTBS,Tone,Noise,25,2,0,0.5656504000071441,1
7825,123,Larynx,Right iTBS,Tone,Noise,26,3,0,0.537304700003006,1
7826,123,Larynx,Right iTBS,Tone,Noise,27,3,1,0.6323054999811569,1
7827,123,Larynx,Right iTBS,Tone,Noise,28,2,1,0.47044299996923705,1
7828,123,Larynx,Right iTBS,Tone,Noise,29,2,1,0.6338779000798239,1
7829,123,Larynx,Right iTBS,Tone,Noise,30,2,0,0.5497415000572801,1
7830,123,Larynx,Right iTBS,Tone,Noise,31,4,1,0.7012539000716059,1
7831,123,Larynx,Right iTBS,Tone,Noise,32,2,1,0.492341500008479,1
7832,123,Larynx,Right iTBS,Tone,Noise,33,1,1,0.391560800024308,1
7833,123,Larynx,Right iTBS,Tone,Noise,34,3,0,0.395238199969754,1
7834,123,Larynx,Right iTBS,Tone,Noise,35,5,1,0.9478456999640908,1
7835,123,Larynx,Right iTBS,Tone,Noise,36,5,1,0.527647200040519,1
7836,123,Larynx,Right iTBS,Tone,Noise,37,2,0,0.573490699985996,1
7837,123,Larynx,Right iTBS,Tone,Noise,38,3,1,0.47739790007471994,1
7838,123,Larynx,Right iTBS,Tone,Noise,39,3,1,0.37999970000237204,1
7839,123,Larynx,Right iTBS,Tone,Noise,40,5,1,0.3931129000848161,1
7840,123,Larynx,Right iTBS,Tone,Noise,41,3,1,0.513162600109354,1
7841,123,Larynx,Right iTBS,Tone,Noise,42,3,1,0.43478460004553204,1
7842,123,Larynx,Right iTBS,Tone,Noise,43,3,1,0.42982779990416,1
7843,123,Larynx,Right iTBS,Tone,Noise,44,4,1,0.367493300000206,1
7844,123,Larynx,Right iTBS,Tone,Noise,45,2,1,0.392433600034565,1
7845,123,Larynx,Right iTBS,Tone,Noise,46,1,0,0.45767849998083004,1
7846,123,Larynx,Right iTBS,Tone,Noise,47,3,0,0.6872296000365171,1
7847,123,Larynx,Right iTBS,Tone,Noise,48,5,1,0.47114779998082706,1
7848,123,Larynx,Right iTBS,Tone,Noise,49,4,1,0.407915299991146,1
7849,123,Larynx,Right iTBS,Tone,Noise,50,1,1,0.3804560999851671,1
7850,123,Larynx,Right iTBS,Tone,Noise,51,4,1,0.784765199990943,1
7851,123,Larynx,Right iTBS,Tone,Noise,52,1,1,0.5964118000119921,1
7852,123,Larynx,Right iTBS,Tone,Noise,53,4,0,0.472557200002484,1
7853,123,Larynx,Right iTBS,Tone,Noise,54,4,1,0.668374400003813,1
7854,123,Larynx,Right iTBS,Tone,Noise,55,4,1,0.530912599992007,1
7855,123,Larynx,Right iTBS,Tone,Noise,56,3,0,0.9979544000234449,1
7856,123,Larynx,Right iTBS,Tone,Noise,57,5,1,0.409847900038585,1
7857,123,Larynx,Right iTBS,Tone,Noise,58,2,1,0.472505799960345,1
7858,123,Larynx,Right iTBS,Tone,Noise,59,3,1,0.41957769996952293,1
7859,123,Larynx,Right iTBS,Tone,Noise,60,5,1,0.590615099994466,1
7860,123,Larynx,Right iTBS,Tone,Noise,61,3,1,0.868334700004198,1
7861,123,Larynx,Right iTBS,Tone,Noise,62,4,1,0.756912800017744,1
7862,123,Larynx,Right iTBS,Tone,Noise,63,3,0,0.601032800041139,1
7863,123,Larynx,Right iTBS,Tone,Noise,64,5,1,0.3998591999989,1
7864,123,Larynx,Right iTBS,Tone,Noise,65,2,1,0.60499040002469,1
7865,123,Larynx,Right iTBS,Tone,Noise,66,2,1,0.378537300042808,1
7866,123,Larynx,Right iTBS,Tone,Noise,67,3,0,0.43203309993259603,1
7867,123,Larynx,Right iTBS,Tone,Noise,68,3,1,0.409105199971236,1
7868,123,Larynx,Right iTBS,Tone,Noise,69,1,1,0.608306800015271,1
7869,123,Larynx,Right iTBS,Tone,Noise,70,2,1,0.515932100010104,1
7870,123,Larynx,Right iTBS,Tone,Noise,71,4,1,0.422948700026609,1
7871,123,Larynx,Right iTBS,Tone,Noise,72,1,0,0.629280699999072,1
7872,123,Larynx,Right iTBS,Tone,Noise,73,2,0,0.552295999950729,1
7873,123,Larynx,Right iTBS,Tone,Noise,74,2,1,0.483202700037509,1
7874,123,Larynx,Right iTBS,Tone,Noise,75,5,1,0.5287638999288901,1
7875,123,Larynx,Right iTBS,Tone,Noise,76,3,1,0.5154650999465961,1
7876,123,Larynx,Right iTBS,Tone,Noise,77,1,0,0.777301200083457,1
7877,123,Larynx,Right iTBS,Tone,Noise,78,2,0,0.611301199998707,1
7878,123,Larynx,Right iTBS,Tone,Noise,79,4,0,0.593007900053635,1
7879,123,Larynx,Right iTBS,Tone,Noise,80,4,1,0.488330400083214,1
7880,123,Larynx,Right iTBS,Tone,Noise,81,1,1,0.49855570006184297,1
7881,123,Larynx,Right iTBS,Tone,Noise,82,5,1,0.571849800064228,1
7882,123,Larynx,Right iTBS,Tone,Noise,83,5,1,0.618495100061409,1
7883,123,Larynx,Right iTBS,Tone,Noise,84,4,1,0.614964300068095,1
7884,123,Larynx,Right iTBS,Tone,Noise,85,2,0,0.830730300047435,1
7885,123,Larynx,Right iTBS,Tone,Noise,86,3,1,0.36794750008266397,1
7886,123,Larynx,Right iTBS,Tone,Noise,87,3,1,0.43539390002843,1
7887,123,Larynx,Right iTBS,Tone,Noise,88,4,1,0.6273273000260821,1
7888,123,Larynx,Right iTBS,Tone,Noise,89,2,0,0.926908999914303,1
7889,123,Larynx,Right iTBS,Tone,Noise,90,4,1,0.38500140001997396,1
7890,123,Larynx,Right iTBS,Tone,Noise,91,2,0,0.76105730002746,1
7891,123,Larynx,Right iTBS,Tone,Noise,92,1,0,0.667514899978414,1
7892,123,Larynx,Right iTBS,Tone,Noise,93,3,0,0.536924599902704,1
7893,123,Larynx,Right iTBS,Tone,Noise,94,1,0,0.659745900076814,1
7894,123,Larynx,Right iTBS,Tone,Noise,95,4,1,0.501230199937709,1
7895,123,Larynx,Right iTBS,Tone,Noise,96,4,1,0.35128870001062795,1
7896,123,Larynx,Right iTBS,Tone,Noise,97,2,1,0.34843960008584,1
7897,123,Larynx,Right iTBS,Tone,Noise,98,2,1,0.360843700007536,1
7898,123,Larynx,Right iTBS,Tone,Noise,99,3,1,0.419857800006866,1
7899,123,Larynx,Right iTBS,Tone,Noise,100,3,1,0.495263900025748,1
7900,123,Larynx,Right iTBS,Tone,Noise,101,2,1,0.47027190006338104,1
7901,123,Larynx,Right iTBS,Tone,Noise,102,5,1,0.5506177999777719,1
7902,123,Larynx,Right iTBS,Tone,Noise,103,2,1,0.5210252000251779,1
7903,123,Larynx,Right iTBS,Tone,Noise,104,3,0,0.6967527000233531,1
7904,123,Larynx,Right iTBS,Tone,Noise,105,3,1,0.5781191000714899,1
7905,123,Larynx,Right iTBS,Tone,Noise,106,5,1,0.549214500002563,1
7906,123,Larynx,Right iTBS,Tone,Noise,107,5,1,0.480303599964827,1
7907,123,Larynx,Right iTBS,Tone,Noise,108,1,0,0.7512954999692741,1
7908,123,Larynx,Right iTBS,Tone,Noise,109,4,1,0.41599570005200803,1
7909,123,Larynx,Right iTBS,Tone,Noise,110,3,1,0.43977860000450203,1
7910,123,Larynx,Right iTBS,Tone,Noise,111,1,1,0.535049800062552,1
7911,123,Larynx,Right iTBS,Tone,Noise,112,3,0,0.558618299895898,1
7912,123,Larynx,Right iTBS,Tone,Noise,113,5,1,0.54437399993185,1
7913,123,Larynx,Right iTBS,Tone,Noise,114,1,1,0.364330200012773,1
7914,123,Larynx,Right iTBS,Tone,Noise,115,3,1,0.583351799985394,1
7915,123,Larynx,Right iTBS,Tone,Noise,116,2,0,0.5739375000121071,1
7916,123,Larynx,Right iTBS,Tone,Noise,117,3,0,0.49633669992908797,1
7917,123,Larynx,Right iTBS,Tone,Noise,118,2,1,0.510897399974056,1
7918,123,Larynx,Right iTBS,Tone,Noise,119,2,0,0.453496100031771,1
7919,123,Larynx,Right iTBS,Tone,Noise,120,1,0,0.46218979998957394,1
7920,123,Larynx,Right iTBS,Tone,Noise,121,2,0,0.41304149990901395,1
7921,123,Larynx,Right iTBS,Tone,Noise,122,4,0,0.417814400047064,1
7922,123,Larynx,Right iTBS,Tone,Noise,123,3,1,0.353775899973698,1
7923,123,Larynx,Right iTBS,Tone,Noise,124,3,1,0.38839480001479404,1
7924,123,Larynx,Right iTBS,Tone,Noise,125,1,1,0.355810900102369,1
7925,123,Larynx,Right iTBS,Tone,Noise,126,3,1,0.386803100001998,1
7926,123,Larynx,Right iTBS,Tone,Noise,127,4,1,0.36498399998527004,1
7927,123,Larynx,Right iTBS,Tone,Noise,128,5,1,0.35882790002506204,1
7928,123,Larynx,Right iTBS,Tone,Noise,129,3,1,0.35083770006895104,1
7929,123,Larynx,Right iTBS,Tone,Noise,130,3,1,0.386981999967247,1
7930,123,Larynx,Right iTBS,Tone,Noise,131,5,0,0.4674441999522971,1
7931,123,Larynx,Right iTBS,Tone,Noise,132,2,1,0.49644140002783393,1
7932,123,Larynx,Right iTBS,Tone,Noise,133,1,0,0.762414299999364,1
7933,123,Larynx,Right iTBS,Tone,Noise,134,4,0,0.568927300046198,1
7934,123,Larynx,Right iTBS,Tone,Noise,135,1,0,0.721973199979402,1
7935,123,Larynx,Right iTBS,Tone,Noise,136,2,1,0.555058600031771,1
7936,123,Larynx,Right iTBS,Tone,Noise,137,4,1,0.42643180000595704,1
7937,123,Larynx,Right iTBS,Tone,Noise,138,2,1,0.487063199980184,1
7938,123,Larynx,Right iTBS,Tone,Noise,139,5,1,0.833508000010625,1
7939,123,Larynx,Right iTBS,Tone,Noise,140,1,0,0.71108020003885,1
7940,123,Larynx,Right iTBS,Tone,Noise,141,4,1,0.5193132999120279,1
7941,123,Larynx,Right iTBS,Tone,Noise,142,5,1,0.396541900001466,1
7942,123,Larynx,Right iTBS,Tone,Noise,143,2,1,0.37613649992272297,1
7943,123,Larynx,Right iTBS,Tone,Noise,144,3,0,0.553464800002985,1
7944,123,Larynx,Right iTBS,Tone,Noise,145,5,1,0.39981109998188896,1
7945,123,Larynx,Right iTBS,Tone,Noise,146,3,1,0.34368990000803,1
7946,123,Larynx,Right iTBS,Tone,Noise,147,4,1,0.345230100094341,1
7947,123,Larynx,Right iTBS,Tone,Noise,148,3,1,0.337917200056836,1
7948,123,Larynx,Right iTBS,Tone,Noise,149,4,1,0.42913830000907205,1
7949,123,Larynx,Right iTBS,Tone,Noise,150,1,0,0.5882956999121229,1
7950,123,Larynx,Right iTBS,Tone,Noise,151,2,1,0.356557600083761,1
7951,123,Larynx,Right iTBS,Tone,Noise,152,5,1,0.6988403999712322,1
7952,123,Larynx,Right iTBS,Tone,Noise,153,3,0,0.9734435999998822,1
7953,123,Larynx,Right iTBS,Tone,Noise,154,4,1,0.47878090001177004,1
7954,123,Larynx,Right iTBS,Tone,Noise,155,3,1,0.435370800085366,1
7955,123,Larynx,Right iTBS,Tone,Noise,156,3,1,0.497675299993716,1
9048,123,Larynx,Sham,Tone,Noise,1,3,0,1.59242689993698,1
9049,123,Larynx,Sham,Tone,Noise,2,4,1,0.696354900021106,1
9050,123,Larynx,Sham,Tone,Noise,3,4,1,0.6506760999327529,1
9051,123,Larynx,Sham,Tone,Noise,4,5,1,0.5549611999886109,1
9052,123,Larynx,Sham,Tone,Noise,5,4,1,0.502827699994668,1
9053,123,Larynx,Sham,Tone,Noise,6,4,0,0.514692299999297,1
9054,123,Larynx,Sham,Tone,Noise,7,5,0,0.49587640003301203,1
9055,123,Larynx,Sham,Tone,Noise,8,5,1,0.622036900022067,1
9056,123,Larynx,Sham,Tone,Noise,9,1,0,0.500369399902411,1
9057,123,Larynx,Sham,Tone,Noise,10,3,1,0.544731800095178,1
9058,123,Larynx,Sham,Tone,Noise,11,5,1,0.496568000060506,1
9059,123,Larynx,Sham,Tone,Noise,12,2,1,0.49257460003718706,1
9060,123,Larynx,Sham,Tone,Noise,13,3,1,0.539122699992731,1
9061,123,Larynx,Sham,Tone,Noise,14,1,0,0.6845943999942391,1
9062,123,Larynx,Sham,Tone,Noise,15,1,0,0.7417686000699181,1
9063,123,Larynx,Sham,Tone,Noise,16,2,0,0.6659100999822839,1
9064,123,Larynx,Sham,Tone,Noise,17,3,1,0.503339300048538,1
9065,123,Larynx,Sham,Tone,Noise,18,1,0,0.786738299997523,1
9066,123,Larynx,Sham,Tone,Noise,19,3,1,0.45768160000443503,1
9067,123,Larynx,Sham,Tone,Noise,20,3,1,0.647278600023128,1
9068,123,Larynx,Sham,Tone,Noise,21,3,1,0.548036399995908,1
9069,123,Larynx,Sham,Tone,Noise,22,4,1,0.5245433000382039,1
9070,123,Larynx,Sham,Tone,Noise,23,4,1,0.42736080009490296,1
9071,123,Larynx,Sham,Tone,Noise,24,5,1,0.49456220003776297,1
9072,123,Larynx,Sham,Tone,Noise,25,3,1,0.462109899963252,1
9073,123,Larynx,Sham,Tone,Noise,26,3,1,0.37458730000071205,1
9074,123,Larynx,Sham,Tone,Noise,27,3,0,0.458560999948531,1
9075,123,Larynx,Sham,Tone,Noise,28,1,0,0.656950399978086,1
9076,123,Larynx,Sham,Tone,Noise,29,4,0,0.6841642999788751,1
9077,123,Larynx,Sham,Tone,Noise,30,2,1,0.383285799995065,1
9078,123,Larynx,Sham,Tone,Noise,31,2,1,0.6298704000655561,1
9079,123,Larynx,Sham,Tone,Noise,32,3,1,0.772824999992736,1
9080,123,Larynx,Sham,Tone,Noise,33,4,1,0.8584556999849159,1
9081,123,Larynx,Sham,Tone,Noise,34,5,1,0.676483100047335,1
9082,123,Larynx,Sham,Tone,Noise,35,2,0,0.629101800033823,1
9083,123,Larynx,Sham,Tone,Noise,36,2,0,0.723731999984011,1
9084,123,Larynx,Sham,Tone,Noise,37,2,1,0.46525400003884004,1
9085,123,Larynx,Sham,Tone,Noise,38,1,1,0.6174186000134799,1
9086,123,Larynx,Sham,Tone,Noise,39,2,0,1.30822440003976,1
9087,123,Larynx,Sham,Tone,Noise,40,4,1,0.5227291000774129,1
9088,123,Larynx,Sham,Tone,Noise,41,3,1,0.48924440005794206,1
9089,123,Larynx,Sham,Tone,Noise,42,4,1,0.657489200006239,1
9090,123,Larynx,Sham,Tone,Noise,43,1,0,0.5936587000032889,1
9091,123,Larynx,Sham,Tone,Noise,44,1,0,0.527335299993865,1
9092,123,Larynx,Sham,Tone,Noise,45,2,0,0.46391739998944104,1
9093,123,Larynx,Sham,Tone,Noise,46,4,0,0.398886000039056,1
9094,123,Larynx,Sham,Tone,Noise,47,4,0,0.659974400070496,1
9095,123,Larynx,Sham,Tone,Noise,48,5,1,0.503399999928661,1
9096,123,Larynx,Sham,Tone,Noise,49,4,1,0.599332300014794,1
9097,123,Larynx,Sham,Tone,Noise,50,2,0,0.6128537999466059,1
9098,123,Larynx,Sham,Tone,Noise,51,1,0,0.46886350004933797,1
9099,123,Larynx,Sham,Tone,Noise,52,3,0,0.49925560003612196,1
9100,123,Larynx,Sham,Tone,Noise,53,5,1,0.46627289999742105,1
9101,123,Larynx,Sham,Tone,Noise,54,2,0,0.62156550004147,1
9102,123,Larynx,Sham,Tone,Noise,55,2,1,0.546625000075437,1
9103,123,Larynx,Sham,Tone,Noise,56,3,0,0.691257999977097,1
9104,123,Larynx,Sham,Tone,Noise,57,5,1,0.5518569999840109,1
9105,123,Larynx,Sham,Tone,Noise,58,3,0,0.551289699971676,1
9106,123,Larynx,Sham,Tone,Noise,59,3,0,0.6538087999215351,1
9107,123,Larynx,Sham,Tone,Noise,60,2,0,0.8248271000338722,1
9108,123,Larynx,Sham,Tone,Noise,61,3,1,0.720619600033388,1
9109,123,Larynx,Sham,Tone,Noise,62,4,1,0.9653513999655842,1
9110,123,Larynx,Sham,Tone,Noise,63,3,1,0.707755799987353,1
9111,123,Larynx,Sham,Tone,Noise,64,5,1,0.49116520001553005,1
9112,123,Larynx,Sham,Tone,Noise,65,3,1,0.49045489996206,1
9113,123,Larynx,Sham,Tone,Noise,66,3,1,0.767231700010598,1
9114,123,Larynx,Sham,Tone,Noise,67,4,1,0.633380900020711,1
9115,123,Larynx,Sham,Tone,Noise,68,1,0,0.7817493000766259,1
9116,123,Larynx,Sham,Tone,Noise,69,3,0,0.6472569999750699,1
9117,123,Larynx,Sham,Tone,Noise,70,5,1,0.5252096999902279,1
9118,123,Larynx,Sham,Tone,Noise,71,3,0,0.651475400081836,1
9119,123,Larynx,Sham,Tone,Noise,72,4,0,0.599002199945971,1
9120,123,Larynx,Sham,Tone,Noise,73,5,1,0.7334603000199421,1
9121,123,Larynx,Sham,Tone,Noise,74,2,0,0.7530368999578059,1
9122,123,Larynx,Sham,Tone,Noise,75,1,0,0.661775600048713,1
9123,123,Larynx,Sham,Tone,Noise,76,2,1,0.704573600087315,1
9124,123,Larynx,Sham,Tone,Noise,77,1,0,0.6961031999671831,1
9125,123,Larynx,Sham,Tone,Noise,78,2,1,0.43373709998559207,1
9126,123,Larynx,Sham,Tone,Noise,79,5,1,0.5139532999601221,1
9127,123,Larynx,Sham,Tone,Noise,80,2,1,1.10844189999625,1
9128,123,Larynx,Sham,Tone,Noise,81,2,1,0.731595000019297,1
9129,123,Larynx,Sham,Tone,Noise,82,2,0,0.652026599971578,1
9130,123,Larynx,Sham,Tone,Noise,83,4,1,0.547824600012973,1
9131,123,Larynx,Sham,Tone,Noise,84,2,0,0.8061599000357091,1
9132,123,Larynx,Sham,Tone,Noise,85,2,0,0.900671100011095,1
9133,123,Larynx,Sham,Tone,Noise,86,1,0,0.655158999958076,1
9134,123,Larynx,Sham,Tone,Noise,87,5,1,0.526103800046258,1
9135,123,Larynx,Sham,Tone,Noise,88,5,1,0.5959061000030489,1
9136,123,Larynx,Sham,Tone,Noise,89,3,0,0.653883000020869,1
9137,123,Larynx,Sham,Tone,Noise,90,3,0,0.8744358000112701,1
9138,123,Larynx,Sham,Tone,Noise,91,3,0,0.6041117999702691,1
9139,123,Larynx,Sham,Tone,Noise,92,4,1,0.42993760004174003,1
9140,123,Larynx,Sham,Tone,Noise,93,4,1,0.4624716000398621,1
9141,123,Larynx,Sham,Tone,Noise,94,5,1,0.6318523000227291,1
9142,123,Larynx,Sham,Tone,Noise,95,4,0,0.6966855000937359,1
9143,123,Larynx,Sham,Tone,Noise,96,5,1,0.612083199899644,1
9144,123,Larynx,Sham,Tone,Noise,97,1,0,0.620558499940671,1
9145,123,Larynx,Sham,Tone,Noise,98,3,1,0.481433999957517,1
9146,123,Larynx,Sham,Tone,Noise,99,1,0,0.674342400045134,1
9147,123,Larynx,Sham,Tone,Noise,100,3,0,0.8513053000206129,1
9148,123,Larynx,Sham,Tone,Noise,101,1,0,0.930136900045909,1
9149,123,Larynx,Sham,Tone,Noise,102,4,1,0.49536770000122493,1
9150,123,Larynx,Sham,Tone,Noise,103,3,0,0.67329389997758,1
9151,123,Larynx,Sham,Tone,Noise,104,4,1,0.386298800003715,1
9152,123,Larynx,Sham,Tone,Noise,105,2,0,0.6475276000564921,1
9153,123,Larynx,Sham,Tone,Noise,106,3,1,0.47133339999709295,1
9154,123,Larynx,Sham,Tone,Noise,107,3,0,0.600107899983414,1
9155,123,Larynx,Sham,Tone,Noise,108,5,1,0.347848600009456,1
9156,123,Larynx,Sham,Tone,Noise,109,3,0,0.5606765000848101,1
9157,123,Larynx,Sham,Tone,Noise,110,2,1,0.526770999887958,1
9158,123,Larynx,Sham,Tone,Noise,111,1,1,0.362408099928871,1
9159,123,Larynx,Sham,Tone,Noise,112,4,1,0.546374200028367,1
9160,123,Larynx,Sham,Tone,Noise,113,3,1,0.6865660999901589,1
9161,123,Larynx,Sham,Tone,Noise,114,4,1,0.4449485000222921,1
9162,123,Larynx,Sham,Tone,Noise,115,1,1,0.423100499901921,1
9163,123,Larynx,Sham,Tone,Noise,116,2,0,0.722834800020792,1
9164,123,Larynx,Sham,Tone,Noise,117,3,0,0.674099000054412,1
9165,123,Larynx,Sham,Tone,Noise,118,1,0,0.592713900026865,1
9166,123,Larynx,Sham,Tone,Noise,119,3,0,1.28377580002416,1
9167,123,Larynx,Sham,Tone,Noise,120,1,1,0.6058401999762281,1
9168,123,Larynx,Sham,Tone,Noise,121,3,1,0.582578300032765,1
9169,123,Larynx,Sham,Tone,Noise,122,2,0,0.735402400023304,1
9170,123,Larynx,Sham,Tone,Noise,123,4,1,0.991035100072622,1
9171,123,Larynx,Sham,Tone,Noise,124,4,1,0.644009899930097,1
9172,123,Larynx,Sham,Tone,Noise,125,3,0,0.788811199949123,1
9173,123,Larynx,Sham,Tone,Noise,126,3,1,1.13433439994697,1
9174,123,Larynx,Sham,Tone,Noise,127,2,1,0.857455600053072,1
9175,123,Larynx,Sham,Tone,Noise,128,4,1,1.02327739994507,1
9176,123,Larynx,Sham,Tone,Noise,129,5,1,1.08631160005461,1
9177,123,Larynx,Sham,Tone,Noise,130,2,0,0.8083162000402808,1
9178,123,Larynx,Sham,Tone,Noise,131,1,0,0.7988149999873709,1
9179,123,Larynx,Sham,Tone,Noise,132,2,1,1.0899779000319498,1
9180,123,Larynx,Sham,Tone,Noise,133,5,1,0.8818035000003871,1
9181,123,Larynx,Sham,Tone,Noise,134,3,0,0.5525511000305411,1
9182,123,Larynx,Sham,Tone,Noise,135,3,0,0.584934400045313,1
9183,123,Larynx,Sham,Tone,Noise,136,3,0,0.4527720999903979,1
9184,123,Larynx,Sham,Tone,Noise,137,2,0,0.446504499996081,1
9185,123,Larynx,Sham,Tone,Noise,138,3,0,0.714068000088446,1
9186,123,Larynx,Sham,Tone,Noise,139,4,1,0.422781799919903,1
9187,123,Larynx,Sham,Tone,Noise,140,3,1,0.44195100001525106,1
9188,123,Larynx,Sham,Tone,Noise,141,4,1,0.386219599982724,1
9189,123,Larynx,Sham,Tone,Noise,142,1,0,0.68636020005215,1
9190,123,Larynx,Sham,Tone,Noise,143,5,1,0.523700600024313,1
9191,123,Larynx,Sham,Tone,Noise,144,2,0,0.6900353999808431,1
9192,123,Larynx,Sham,Tone,Noise,145,3,1,0.421502799959853,1
9193,123,Larynx,Sham,Tone,Noise,146,4,1,0.585607299930416,1
9194,123,Larynx,Sham,Tone,Noise,147,1,1,0.42210299998987505,1
9195,123,Larynx,Sham,Tone,Noise,148,1,1,0.8000739000272009,1
9196,123,Larynx,Sham,Tone,Noise,149,2,0,0.921074600075372,1
9197,123,Larynx,Sham,Tone,Noise,150,5,1,0.585109799983911,1
9198,123,Larynx,Sham,Tone,Noise,151,5,1,0.43919259996619103,1
9199,123,Larynx,Sham,Tone,Noise,152,5,1,0.39200049999635705,1
9200,123,Larynx,Sham,Tone,Noise,153,4,1,0.468368400004692,1
9201,123,Larynx,Sham,Tone,Noise,154,3,0,0.6833885000087321,1
9202,123,Larynx,Sham,Tone,Noise,155,2,0,0.57703909999691,1
9203,123,Larynx,Sham,Tone,Noise,156,4,1,0.5101086000213401,1
10920,139,Larynx,Right iTBS,Tone,Noise,1,4,0,1.43344890000299,1
10921,139,Larynx,Right iTBS,Tone,Noise,2,2,0,1.2743373999837802,1
10922,139,Larynx,Right iTBS,Tone,Noise,3,4,0,1.1258426000131299,1
10923,139,Larynx,Right iTBS,Tone,Noise,4,1,0,0.8225486000301321,1
10924,139,Larynx,Right iTBS,Tone,Noise,5,1,0,0.6080460000084711,1
10925,139,Larynx,Right iTBS,Tone,Noise,6,3,0,1.20452549995389,1
10926,139,Larynx,Right iTBS,Tone,Noise,7,2,1,1.2053751000203201,1
10927,139,Larynx,Right iTBS,Tone,Noise,8,2,0,0.809838199988008,1
10928,139,Larynx,Right iTBS,Tone,Noise,9,2,1,0.8282067000400279,1
10929,139,Larynx,Right iTBS,Tone,Noise,10,2,1,0.8849849998950959,1
10930,139,Larynx,Right iTBS,Tone,Noise,11,4,0,1.1674060999648601,1
10931,139,Larynx,Right iTBS,Tone,Noise,12,2,1,1.17958060000092,1
10932,139,Larynx,Right iTBS,Tone,Noise,13,3,0,0.662440499989316,1
10933,139,Larynx,Right iTBS,Tone,Noise,14,3,0,0.719017299939878,1
10934,139,Larynx,Right iTBS,Tone,Noise,15,3,0,0.9715480000013491,1
10935,139,Larynx,Right iTBS,Tone,Noise,16,1,1,0.907989100087434,1
10936,139,Larynx,Right iTBS,Tone,Noise,17,4,1,1.13242690009065,1
10937,139,Larynx,Right iTBS,Tone,Noise,18,5,0,0.8455715000163759,1
10938,139,Larynx,Right iTBS,Tone,Noise,19,4,0,1.10362860001624,1
10939,139,Larynx,Right iTBS,Tone,Noise,20,5,0,0.7686389000155028,1
10940,139,Larynx,Right iTBS,Tone,Noise,21,3,0,0.758465999970213,1
10941,139,Larynx,Right iTBS,Tone,Noise,22,1,1,0.727893100003712,1
10942,139,Larynx,Right iTBS,Tone,Noise,23,3,1,0.680412099929526,1
10943,139,Larynx,Right iTBS,Tone,Noise,24,1,0,0.828206600039266,1
10944,139,Larynx,Right iTBS,Tone,Noise,25,3,1,0.699966400046833,1
10945,139,Larynx,Right iTBS,Tone,Noise,26,5,1,0.668475900078192,1
10946,139,Larynx,Right iTBS,Tone,Noise,27,5,0,0.7575185999739921,1
10947,139,Larynx,Right iTBS,Tone,Noise,28,4,0,0.6602238999912521,1
10948,139,Larynx,Right iTBS,Tone,Noise,29,3,0,0.60890340001788,1
10949,139,Larynx,Right iTBS,Tone,Noise,30,3,1,0.716507200035267,1
10950,139,Larynx,Right iTBS,Tone,Noise,31,2,1,0.598346799961291,1
10951,139,Larynx,Right iTBS,Tone,Noise,32,1,0,1.17743749998044,1
10952,139,Larynx,Right iTBS,Tone,Noise,33,5,0,0.781487499945797,1
10953,139,Larynx,Right iTBS,Tone,Noise,34,5,1,0.768615100067109,1
10954,139,Larynx,Right iTBS,Tone,Noise,35,4,0,0.7867352000903342,1
10955,139,Larynx,Right iTBS,Tone,Noise,36,3,1,0.7489738999865949,1
10956,139,Larynx,Right iTBS,Tone,Noise,37,3,0,0.692650499986485,1
10957,139,Larynx,Right iTBS,Tone,Noise,38,4,0,0.700258200056851,1
10958,139,Larynx,Right iTBS,Tone,Noise,39,2,0,1.7511551999487,1
10959,139,Larynx,Right iTBS,Tone,Noise,40,3,0,0.715775899938308,1
10960,139,Larynx,Right iTBS,Tone,Noise,41,4,0,0.764342400012538,1
10961,139,Larynx,Right iTBS,Tone,Noise,42,2,0,0.8185843999963249,1
10962,139,Larynx,Right iTBS,Tone,Noise,43,5,0,0.708523600012995,1
10963,139,Larynx,Right iTBS,Tone,Noise,44,2,0,0.87810490000993,1
10964,139,Larynx,Right iTBS,Tone,Noise,45,3,0,0.701321200001985,1
10965,139,Larynx,Right iTBS,Tone,Noise,46,2,0,1.00368909991812,1
10966,139,Larynx,Right iTBS,Tone,Noise,47,5,1,0.7615694999694821,1
10967,139,Larynx,Right iTBS,Tone,Noise,48,1,0,0.692892099963501,1
10968,139,Larynx,Right iTBS,Tone,Noise,49,3,0,0.8294804999604821,1
10969,139,Larynx,Right iTBS,Tone,Noise,50,4,0,0.9520568998996172,1
10970,139,Larynx,Right iTBS,Tone,Noise,51,3,1,0.7957802000455559,1
10971,139,Larynx,Right iTBS,Tone,Noise,52,5,0,0.649198200087994,1
10972,139,Larynx,Right iTBS,Tone,Noise,53,4,1,1.0501871999585999,1
10973,139,Larynx,Right iTBS,Tone,Noise,54,4,0,0.789440999971703,1
10974,139,Larynx,Right iTBS,Tone,Noise,55,2,0,0.764141899999231,1
10975,139,Larynx,Right iTBS,Tone,Noise,56,4,1,0.770825799903832,1
10976,139,Larynx,Right iTBS,Tone,Noise,57,3,0,0.6737755000358451,1
10977,139,Larynx,Right iTBS,Tone,Noise,58,1,0,0.88475000008475,1
10978,139,Larynx,Right iTBS,Tone,Noise,59,2,0,0.9249808000167831,1
10979,139,Larynx,Right iTBS,Tone,Noise,60,3,0,1.00269460002892,1
10980,139,Larynx,Right iTBS,Tone,Noise,61,5,1,0.729666400002316,1
10981,139,Larynx,Right iTBS,Tone,Noise,62,4,0,0.645374100073241,1
10982,139,Larynx,Right iTBS,Tone,Noise,63,1,0,0.7827989000361409,1
10983,139,Larynx,Right iTBS,Tone,Noise,64,5,1,0.761487299925648,1
10984,139,Larynx,Right iTBS,Tone,Noise,65,2,0,0.619448099983856,1
10985,139,Larynx,Right iTBS,Tone,Noise,66,3,1,0.8404410999501121,1
10986,139,Larynx,Right iTBS,Tone,Noise,67,1,0,0.693866800051183,1
10987,139,Larynx,Right iTBS,Tone,Noise,68,4,1,0.783150900038891,1
10988,139,Larynx,Right iTBS,Tone,Noise,69,1,0,0.726820699987002,1
10989,139,Larynx,Right iTBS,Tone,Noise,70,1,0,0.745653500081971,1
10990,139,Larynx,Right iTBS,Tone,Noise,71,3,0,0.816011399962008,1
10991,139,Larynx,Right iTBS,Tone,Noise,72,5,1,0.750912800082006,1
10992,139,Larynx,Right iTBS,Tone,Noise,73,2,0,0.732256600051187,1
10993,139,Larynx,Right iTBS,Tone,Noise,74,4,1,1.23647709994111,1
10994,139,Larynx,Right iTBS,Tone,Noise,75,2,0,0.614855600055307,1
10995,139,Larynx,Right iTBS,Tone,Noise,76,3,1,1.0374340000562399,1
10996,139,Larynx,Right iTBS,Tone,Noise,77,3,0,0.603883699979633,1
10997,139,Larynx,Right iTBS,Tone,Noise,78,3,0,0.838076199986972,1
10998,139,Larynx,Right iTBS,Tone,Noise,79,2,0,0.908256499911658,1
10999,139,Larynx,Right iTBS,Tone,Noise,80,4,1,0.6804275999311359,1
11000,139,Larynx,Right iTBS,Tone,Noise,81,4,0,0.719700400019065,1
11001,139,Larynx,Right iTBS,Tone,Noise,82,2,0,0.9491464999737221,1
11002,139,Larynx,Right iTBS,Tone,Noise,83,3,0,0.760546299978159,1
11003,139,Larynx,Right iTBS,Tone,Noise,84,3,0,1.0715407000389001,1
11004,139,Larynx,Right iTBS,Tone,Noise,85,1,0,0.9898249999387191,1
11005,139,Larynx,Right iTBS,Tone,Noise,86,4,1,0.7639110999880359,1
11006,139,Larynx,Right iTBS,Tone,Noise,87,3,0,0.717304700054228,1
11007,139,Larynx,Right iTBS,Tone,Noise,88,2,0,0.855961199966259,1
11008,139,Larynx,Right iTBS,Tone,Noise,89,5,1,1.5716662000631898,1
11009,139,Larynx,Right iTBS,Tone,Noise,90,1,0,0.81828999996651,1
11010,139,Larynx,Right iTBS,Tone,Noise,91,5,1,0.8716747999424109,1
11011,139,Larynx,Right iTBS,Tone,Noise,92,4,0,0.753070999984629,1
11012,139,Larynx,Right iTBS,Tone,Noise,93,3,0,0.5171587000368161,1
11013,139,Larynx,Right iTBS,Tone,Noise,94,1,0,0.697984499973245,1
11014,139,Larynx,Right iTBS,Tone,Noise,95,5,0,0.929595699999481,1
11015,139,Larynx,Right iTBS,Tone,Noise,96,3,1,0.694968800060451,1
11016,139,Larynx,Right iTBS,Tone,Noise,97,4,0,0.7443168000318109,1
11017,139,Larynx,Right iTBS,Tone,Noise,98,3,1,0.849636300001293,1
11018,139,Larynx,Right iTBS,Tone,Noise,99,2,0,1.02648030000273,1
11019,139,Larynx,Right iTBS,Tone,Noise,100,3,0,0.903937099967152,1
11020,139,Larynx,Right iTBS,Tone,Noise,101,3,1,0.9708963999291881,1
11021,139,Larynx,Right iTBS,Tone,Noise,102,2,0,0.903175299987197,1
11022,139,Larynx,Right iTBS,Tone,Noise,103,5,1,0.8422451999504119,1
11023,139,Larynx,Right iTBS,Tone,Noise,104,5,0,1.21748610003851,1
11024,139,Larynx,Right iTBS,Tone,Noise,105,1,0,0.859029999934137,1
11025,139,Larynx,Right iTBS,Tone,Noise,106,3,1,0.764170599984936,1
11026,139,Larynx,Right iTBS,Tone,Noise,107,4,0,0.811665800050832,1
11027,139,Larynx,Right iTBS,Tone,Noise,108,2,0,0.972507899976335,1
11028,139,Larynx,Right iTBS,Tone,Noise,109,3,1,1.1816347000421998,1
11029,139,Larynx,Right iTBS,Tone,Noise,110,3,1,1.19943500007503,1
11030,139,Larynx,Right iTBS,Tone,Noise,111,2,0,0.8059617000399159,1
11031,139,Larynx,Right iTBS,Tone,Noise,112,1,0,0.873333600000478,1
11032,139,Larynx,Right iTBS,Tone,Noise,113,4,0,1.0425155000994,1
11033,139,Larynx,Right iTBS,Tone,Noise,114,5,1,0.7272404000395909,1
11034,139,Larynx,Right iTBS,Tone,Noise,115,1,0,0.8346790000796321,1
11035,139,Larynx,Right iTBS,Tone,Noise,116,2,0,0.655290099908598,1
11036,139,Larynx,Right iTBS,Tone,Noise,117,4,0,0.640558399958536,1
11037,139,Larynx,Right iTBS,Tone,Noise,118,3,0,0.7482168999267741,1
11038,139,Larynx,Right iTBS,Tone,Noise,119,4,1,0.896859000087716,1
11039,139,Larynx,Right iTBS,Tone,Noise,120,2,1,0.8799938000738621,1
11040,139,Larynx,Right iTBS,Tone,Noise,121,1,1,1.0770665999734799,1
11041,139,Larynx,Right iTBS,Tone,Noise,122,1,0,0.824769500060938,1
11042,139,Larynx,Right iTBS,Tone,Noise,123,3,1,1.13429249997716,1
11043,139,Larynx,Right iTBS,Tone,Noise,124,3,0,0.8526641000062231,1
11044,139,Larynx,Right iTBS,Tone,Noise,125,5,1,1.46727440005634,1
11045,139,Larynx,Right iTBS,Tone,Noise,126,5,1,0.917868999997154,1
11046,139,Larynx,Right iTBS,Tone,Noise,127,3,0,0.8813434001058341,1
11047,139,Larynx,Right iTBS,Tone,Noise,128,3,0,1.08440910000354,1
11048,139,Larynx,Right iTBS,Tone,Noise,129,3,0,1.14183939993382,1
11049,139,Larynx,Right iTBS,Tone,Noise,130,4,1,0.846686800010502,1
11050,139,Larynx,Right iTBS,Tone,Noise,131,2,0,0.812351700034924,1
11051,139,Larynx,Right iTBS,Tone,Noise,132,3,0,0.8675410000141709,1
11052,139,Larynx,Right iTBS,Tone,Noise,133,4,0,0.768617100082338,1
11053,139,Larynx,Right iTBS,Tone,Noise,134,5,0,0.826490800012834,1
11054,139,Larynx,Right iTBS,Tone,Noise,135,4,1,0.7479430000530559,1
11055,139,Larynx,Right iTBS,Tone,Noise,136,5,0,0.621803699992597,1
11056,139,Larynx,Right iTBS,Tone,Noise,137,3,0,0.62178800010588,1
11057,139,Larynx,Right iTBS,Tone,Noise,138,2,0,1.1991039999993502,1
11058,139,Larynx,Right iTBS,Tone,Noise,139,3,0,0.7443593000061809,1
11059,139,Larynx,Right iTBS,Tone,Noise,140,4,0,0.663643500069156,1
11060,139,Larynx,Right iTBS,Tone,Noise,141,1,0,0.75244049995672,1
11061,139,Larynx,Right iTBS,Tone,Noise,142,1,0,1.0214575000573,1
11062,139,Larynx,Right iTBS,Tone,Noise,143,2,0,0.583205699920654,1
11063,139,Larynx,Right iTBS,Tone,Noise,144,2,0,0.8359610000625249,1
11064,139,Larynx,Right iTBS,Tone,Noise,145,5,1,0.65457370004151,1
11065,139,Larynx,Right iTBS,Tone,Noise,146,4,0,0.8018861999735241,1
11066,139,Larynx,Right iTBS,Tone,Noise,147,2,0,0.7536350999725979,1
11067,139,Larynx,Right iTBS,Tone,Noise,148,4,1,0.698208599933423,1
11068,139,Larynx,Right iTBS,Tone,Noise,149,2,0,0.8956267000176009,1
11069,139,Larynx,Right iTBS,Tone,Noise,150,3,0,0.7282165000215172,1
11070,139,Larynx,Right iTBS,Tone,Noise,151,1,0,0.8756510999519379,1
11071,139,Larynx,Right iTBS,Tone,Noise,152,1,0,1.37059349997435,1
11072,139,Larynx,Right iTBS,Tone,Noise,153,3,1,0.851504100020975,1
11073,139,Larynx,Right iTBS,Tone,Noise,154,4,0,1.1013223000336398,1
11074,139,Larynx,Right iTBS,Tone,Noise,155,2,1,1.00637560000177,1
11075,139,Larynx,Right iTBS,Tone,Noise,156,5,0,0.775239799986593,1
12168,139,Larynx,Sham,Tone,Noise,1,3,0,0.810688900004607,1
12169,139,Larynx,Sham,Tone,Noise,2,4,1,0.718038500002876,1
12170,139,Larynx,Sham,Tone,Noise,3,4,1,0.909734900000331,1
12171,139,Larynx,Sham,Tone,Noise,4,5,0,1.04330669999763,1
12172,139,Larynx,Sham,Tone,Noise,5,4,0,0.8514980000036301,1
12173,139,Larynx,Sham,Tone,Noise,6,4,1,1.41907619999984,1
12174,139,Larynx,Sham,Tone,Noise,7,5,1,1.5482886000027098,1
12175,139,Larynx,Sham,Tone,Noise,8,5,0,0.9204045000005859,1
12176,139,Larynx,Sham,Tone,Noise,9,1,0,0.7910610999970229,1
12177,139,Larynx,Sham,Tone,Noise,10,3,0,1.01730810000299,1
12178,139,Larynx,Sham,Tone,Noise,11,5,1,0.796700700004294,1
12179,139,Larynx,Sham,Tone,Noise,12,2,0,0.857862800003204,1
12180,139,Larynx,Sham,Tone,Noise,13,3,0,1.0595945999957601,1
12181,139,Larynx,Sham,Tone,Noise,14,1,0,0.8723399000009521,1
12182,139,Larynx,Sham,Tone,Noise,15,1,1,1.06623699999909,1
12183,139,Larynx,Sham,Tone,Noise,16,2,0,0.73965550000139,1
12184,139,Larynx,Sham,Tone,Noise,17,3,1,1.0262691000025401,1
12185,139,Larynx,Sham,Tone,Noise,18,1,0,0.728674900004989,1
12186,139,Larynx,Sham,Tone,Noise,19,3,0,0.957001999995555,1
12187,139,Larynx,Sham,Tone,Noise,20,3,1,0.757562200000393,1
12188,139,Larynx,Sham,Tone,Noise,21,3,1,0.7450222000043141,1
12189,139,Larynx,Sham,Tone,Noise,22,4,0,0.835135699999228,1
12190,139,Larynx,Sham,Tone,Noise,23,4,1,0.942692900003749,1
12191,139,Larynx,Sham,Tone,Noise,24,5,0,1.08394480000425,1
12192,139,Larynx,Sham,Tone,Noise,25,3,0,0.810235299999476,1
12193,139,Larynx,Sham,Tone,Noise,26,3,1,0.7293922999961071,1
12194,139,Larynx,Sham,Tone,Noise,27,3,0,0.7133040999979129,1
12195,139,Larynx,Sham,Tone,Noise,28,1,0,0.88699639999686,1
12196,139,Larynx,Sham,Tone,Noise,29,4,1,0.825037700000394,1
12197,139,Larynx,Sham,Tone,Noise,30,2,0,0.8951537999964779,1
12198,139,Larynx,Sham,Tone,Noise,31,2,0,1.18174259999796,1
12199,139,Larynx,Sham,Tone,Noise,32,3,0,1.0989472999935999,1
12200,139,Larynx,Sham,Tone,Noise,33,4,1,0.7725662000011649,1
12201,139,Larynx,Sham,Tone,Noise,34,5,1,0.751824099999794,1
12202,139,Larynx,Sham,Tone,Noise,35,2,0,0.783090099997935,1
12203,139,Larynx,Sham,Tone,Noise,36,2,0,0.7897123000002471,1
12204,139,Larynx,Sham,Tone,Noise,37,2,0,1.0931130000026301,1
12205,139,Larynx,Sham,Tone,Noise,38,1,0,0.905059500000789,1
12206,139,Larynx,Sham,Tone,Noise,39,2,1,0.639854799999739,1
12207,139,Larynx,Sham,Tone,Noise,40,4,1,0.863886599996476,1
12208,139,Larynx,Sham,Tone,Noise,41,3,0,1.0702281000049,1
12209,139,Larynx,Sham,Tone,Noise,42,4,1,0.9901207000002609,1
12210,139,Larynx,Sham,Tone,Noise,43,1,1,0.9285770999995291,1
12211,139,Larynx,Sham,Tone,Noise,44,1,0,0.8552994999990908,1
12212,139,Larynx,Sham,Tone,Noise,45,2,1,1.057624699999,1
12213,139,Larynx,Sham,Tone,Noise,46,4,0,0.9973462999987529,1
12214,139,Larynx,Sham,Tone,Noise,47,4,0,1.00730789999943,1
12215,139,Larynx,Sham,Tone,Noise,48,5,1,1.07650950000243,1
12216,139,Larynx,Sham,Tone,Noise,49,4,1,0.9472391999952379,1
12217,139,Larynx,Sham,Tone,Noise,50,2,0,0.638466500000504,1
12218,139,Larynx,Sham,Tone,Noise,51,1,0,0.583091499996954,1
12219,139,Larynx,Sham,Tone,Noise,52,3,0,0.8790100999976859,1
12220,139,Larynx,Sham,Tone,Noise,53,5,1,1.01021760000003,1
12221,139,Larynx,Sham,Tone,Noise,54,2,0,0.908399799998733,1
12222,139,Larynx,Sham,Tone,Noise,55,2,0,0.7808270000023191,1
12223,139,Larynx,Sham,Tone,Noise,56,3,0,1.13168240000232,1
12224,139,Larynx,Sham,Tone,Noise,57,5,1,0.9853599999987641,1
12225,139,Larynx,Sham,Tone,Noise,58,3,0,0.7930651999995459,1
12226,139,Larynx,Sham,Tone,Noise,59,3,0,0.949514500003716,1
12227,139,Larynx,Sham,Tone,Noise,60,2,0,0.859469900002296,1
12228,139,Larynx,Sham,Tone,Noise,61,3,1,1.14110960000107,1
12229,139,Larynx,Sham,Tone,Noise,62,4,0,1.6055388000022501,1
12230,139,Larynx,Sham,Tone,Noise,63,3,0,0.8835221999979691,1
12231,139,Larynx,Sham,Tone,Noise,64,5,1,0.8448846999963281,1
12232,139,Larynx,Sham,Tone,Noise,65,3,0,0.7849260000002691,1
12233,139,Larynx,Sham,Tone,Noise,66,3,1,1.21015530000295,1
12234,139,Larynx,Sham,Tone,Noise,67,4,0,0.8225803999957859,1
12235,139,Larynx,Sham,Tone,Noise,68,1,0,0.6741909999982449,1
12236,139,Larynx,Sham,Tone,Noise,69,3,0,0.7287930000020421,1
12237,139,Larynx,Sham,Tone,Noise,70,5,1,0.697332100004132,1
12238,139,Larynx,Sham,Tone,Noise,71,3,1,0.903125099997851,1
12239,139,Larynx,Sham,Tone,Noise,72,4,0,0.835960299998987,1
12240,139,Larynx,Sham,Tone,Noise,73,5,0,1.1991995999996998,1
12241,139,Larynx,Sham,Tone,Noise,74,2,0,0.748890599999868,1
12242,139,Larynx,Sham,Tone,Noise,75,1,0,0.69276600000012,1
12243,139,Larynx,Sham,Tone,Noise,76,2,1,1.02053680000245,1
12244,139,Larynx,Sham,Tone,Noise,77,1,0,1.25028490000113,1
12245,139,Larynx,Sham,Tone,Noise,78,2,0,0.724749100001645,1
12246,139,Larynx,Sham,Tone,Noise,79,5,1,0.744789600001241,1
12247,139,Larynx,Sham,Tone,Noise,80,2,0,0.717242899998382,1
12248,139,Larynx,Sham,Tone,Noise,81,2,0,0.7849439000056009,1
12249,139,Larynx,Sham,Tone,Noise,82,2,0,0.7460343999991891,1
12250,139,Larynx,Sham,Tone,Noise,83,4,1,0.975161700000172,1
12251,139,Larynx,Sham,Tone,Noise,84,2,0,0.821195599994098,1
12252,139,Larynx,Sham,Tone,Noise,85,2,0,0.6916142999980369,1
12253,139,Larynx,Sham,Tone,Noise,86,1,0,0.773533400002634,1
12254,139,Larynx,Sham,Tone,Noise,87,5,1,0.8491817000031009,1
12255,139,Larynx,Sham,Tone,Noise,88,5,0,1.00944270000036,1
12256,139,Larynx,Sham,Tone,Noise,89,3,0,0.660029899998335,1
12257,139,Larynx,Sham,Tone,Noise,90,3,1,0.847778600000311,1
12258,139,Larynx,Sham,Tone,Noise,91,3,1,1.2039598999981498,1
12259,139,Larynx,Sham,Tone,Noise,92,4,0,0.779640200002177,1
12260,139,Larynx,Sham,Tone,Noise,93,4,0,0.7495955999984292,1
12261,139,Larynx,Sham,Tone,Noise,94,5,1,1.18319270000211,1
12262,139,Larynx,Sham,Tone,Noise,95,4,0,0.8077592999979971,1
12263,139,Larynx,Sham,Tone,Noise,96,5,1,1.40691009999864,1
12264,139,Larynx,Sham,Tone,Noise,97,1,0,0.7663637999939971,1
12265,139,Larynx,Sham,Tone,Noise,98,3,0,0.7407087000028699,1
12266,139,Larynx,Sham,Tone,Noise,99,1,0,0.619490999997652,1
12267,139,Larynx,Sham,Tone,Noise,100,3,1,0.8080300000001441,1
12268,139,Larynx,Sham,Tone,Noise,101,1,0,0.7505212999967629,1
12269,139,Larynx,Sham,Tone,Noise,102,4,1,0.8550509999986391,1
12270,139,Larynx,Sham,Tone,Noise,103,3,0,0.887167799999588,1
12271,139,Larynx,Sham,Tone,Noise,104,4,0,0.7234344000025891,1
12272,139,Larynx,Sham,Tone,Noise,105,2,1,0.8398143000013081,1
12273,139,Larynx,Sham,Tone,Noise,106,3,1,0.8514958000014301,1
12274,139,Larynx,Sham,Tone,Noise,107,3,0,0.936057099999744,1
12275,139,Larynx,Sham,Tone,Noise,108,5,1,0.7186510000028651,1
12276,139,Larynx,Sham,Tone,Noise,109,3,0,0.934876999999688,1
12277,139,Larynx,Sham,Tone,Noise,110,2,0,0.801466299999447,1
12278,139,Larynx,Sham,Tone,Noise,111,1,0,0.891383000001952,1
12279,139,Larynx,Sham,Tone,Noise,112,4,1,0.882888599997386,1
12280,139,Larynx,Sham,Tone,Noise,113,3,1,1.1039086000018898,1
12281,139,Larynx,Sham,Tone,Noise,114,4,0,0.779413299998851,1
12282,139,Larynx,Sham,Tone,Noise,115,1,0,0.6990575000018001,1
12283,139,Larynx,Sham,Tone,Noise,116,2,0,0.774821899998642,1
12284,139,Larynx,Sham,Tone,Noise,117,3,1,0.908855599998788,1
12285,139,Larynx,Sham,Tone,Noise,118,1,0,1.0903041000056,1
12286,139,Larynx,Sham,Tone,Noise,119,3,1,0.8362828000026641,1
12287,139,Larynx,Sham,Tone,Noise,120,1,0,0.742896399999154,1
12288,139,Larynx,Sham,Tone,Noise,121,3,0,1.28169630000048,1
12289,139,Larynx,Sham,Tone,Noise,122,2,0,1.0184633999961101,1
12290,139,Larynx,Sham,Tone,Noise,123,4,1,0.931550099994638,1
12291,139,Larynx,Sham,Tone,Noise,124,4,1,1.2556497000041398,1
12292,139,Larynx,Sham,Tone,Noise,125,3,0,1.2206468000004,1
12293,139,Larynx,Sham,Tone,Noise,126,3,1,1.06802269999753,1
12294,139,Larynx,Sham,Tone,Noise,127,2,0,0.857729099996504,1
12295,139,Larynx,Sham,Tone,Noise,128,4,0,1.0432154999943999,1
12296,139,Larynx,Sham,Tone,Noise,129,5,1,0.895819600002142,1
12297,139,Larynx,Sham,Tone,Noise,130,2,0,0.8414753999968531,1
12298,139,Larynx,Sham,Tone,Noise,131,1,0,0.9380604000034509,1
12299,139,Larynx,Sham,Tone,Noise,132,2,1,0.889088400006585,1
12300,139,Larynx,Sham,Tone,Noise,133,5,1,0.6716091999987839,1
12301,139,Larynx,Sham,Tone,Noise,134,3,0,0.9116228999992021,1
12302,139,Larynx,Sham,Tone,Noise,135,3,1,0.9085844000001091,1
12303,139,Larynx,Sham,Tone,Noise,136,3,1,1.03023659999599,1
12304,139,Larynx,Sham,Tone,Noise,137,2,0,0.7805515000000011,1
12305,139,Larynx,Sham,Tone,Noise,138,3,0,0.679277700000966,1
12306,139,Larynx,Sham,Tone,Noise,139,4,0,1.0170422999945,1
12307,139,Larynx,Sham,Tone,Noise,140,3,1,0.714733399996476,1
12308,139,Larynx,Sham,Tone,Noise,141,4,0,0.7907124999983349,1
12309,139,Larynx,Sham,Tone,Noise,142,1,0,0.647621599993727,1
12310,139,Larynx,Sham,Tone,Noise,143,5,0,0.787602099997457,1
12311,139,Larynx,Sham,Tone,Noise,144,2,0,1.04560299999866,1
12312,139,Larynx,Sham,Tone,Noise,145,3,0,0.8809715999959742,1
12313,139,Larynx,Sham,Tone,Noise,146,4,0,1.04602180000074,1
12314,139,Larynx,Sham,Tone,Noise,147,1,0,0.9892378000004101,1
12315,139,Larynx,Sham,Tone,Noise,148,1,1,1.15018859999691,1
12316,139,Larynx,Sham,Tone,Noise,149,2,0,0.74352170000202,1
12317,139,Larynx,Sham,Tone,Noise,150,5,1,0.8351035000014241,1
12318,139,Larynx,Sham,Tone,Noise,151,5,0,1.05541059999814,1
12319,139,Larynx,Sham,Tone,Noise,152,5,1,1.00256680000166,1
12320,139,Larynx,Sham,Tone,Noise,153,4,0,1.16127649999544,1
12321,139,Larynx,Sham,Tone,Noise,154,3,0,1.5063815999965302,1
12322,139,Larynx,Sham,Tone,Noise,155,2,1,0.8254742999997691,1
12323,139,Larynx,Sham,Tone,Noise,156,4,0,1.2542466000013501,1
14040,142,Larynx,Right iTBS,Tone,Noise,1,4,0,1.0889679999963802,1
14041,142,Larynx,Right iTBS,Tone,Noise,2,2,0,0.680536800005939,1
14042,142,Larynx,Right iTBS,Tone,Noise,3,4,1,0.5749597999965771,1
14043,142,Larynx,Right iTBS,Tone,Noise,4,1,1,0.462003499997081,1
14044,142,Larynx,Right iTBS,Tone,Noise,5,1,1,0.581942199991317,1
14045,142,Larynx,Right iTBS,Tone,Noise,6,3,0,0.544769700005418,1
14046,142,Larynx,Right iTBS,Tone,Noise,7,2,1,0.572666399995796,1
14047,142,Larynx,Right iTBS,Tone,Noise,8,2,1,0.578350199997658,1
14048,142,Larynx,Right iTBS,Tone,Noise,9,2,1,0.647433500009356,1
14049,142,Larynx,Right iTBS,Tone,Noise,10,2,1,0.5661432000051719,1
14050,142,Larynx,Right iTBS,Tone,Noise,11,4,0,0.589909700007411,1
14051,142,Larynx,Right iTBS,Tone,Noise,12,2,1,0.5131221000046929,1
14052,142,Larynx,Right iTBS,Tone,Noise,13,3,1,0.767993099987507,1
14053,142,Larynx,Right iTBS,Tone,Noise,14,3,0,0.879084300016984,1
14054,142,Larynx,Right iTBS,Tone,Noise,15,3,1,0.695295099983923,1
14055,142,Larynx,Right iTBS,Tone,Noise,16,1,1,0.606984100013506,1
14056,142,Larynx,Right iTBS,Tone,Noise,17,4,0,0.596657300018705,1
14057,142,Larynx,Right iTBS,Tone,Noise,18,5,1,0.645670400001109,1
14058,142,Larynx,Right iTBS,Tone,Noise,19,4,1,0.9167358999839049,1
14059,142,Larynx,Right iTBS,Tone,Noise,20,5,1,0.7668588000233291,1
14060,142,Larynx,Right iTBS,Tone,Noise,21,3,0,0.552761200000532,1
14061,142,Larynx,Right iTBS,Tone,Noise,22,1,1,0.583067900006427,1
14062,142,Larynx,Right iTBS,Tone,Noise,23,3,0,0.589626100001624,1
14063,142,Larynx,Right iTBS,Tone,Noise,24,1,0,0.7000595999998039,1
14064,142,Larynx,Right iTBS,Tone,Noise,25,3,0,0.755218200007221,1
14065,142,Larynx,Right iTBS,Tone,Noise,26,5,1,0.612713299982715,1
14066,142,Larynx,Right iTBS,Tone,Noise,27,5,1,0.598293699993519,1
14067,142,Larynx,Right iTBS,Tone,Noise,28,4,1,0.64914090000093,1
14068,142,Larynx,Right iTBS,Tone,Noise,29,3,0,0.4851593000057621,1
14069,142,Larynx,Right iTBS,Tone,Noise,30,3,0,0.7568227000010671,1
14070,142,Larynx,Right iTBS,Tone,Noise,31,2,0,0.738996899977792,1
14071,142,Larynx,Right iTBS,Tone,Noise,32,1,1,0.6563884999777659,1
14072,142,Larynx,Right iTBS,Tone,Noise,33,5,1,0.7215559000032951,1
14073,142,Larynx,Right iTBS,Tone,Noise,34,5,1,0.667719099990791,1
14074,142,Larynx,Right iTBS,Tone,Noise,35,4,1,0.651446499978192,1
14075,142,Larynx,Right iTBS,Tone,Noise,36,3,0,0.890402299992274,1
14076,142,Larynx,Right iTBS,Tone,Noise,37,3,0,0.607428200019058,1
14077,142,Larynx,Right iTBS,Tone,Noise,38,4,1,0.520011999993585,1
14078,142,Larynx,Right iTBS,Tone,Noise,39,2,1,0.8149951999948829,1
14079,142,Larynx,Right iTBS,Tone,Noise,40,3,0,0.74321859999327,1
14080,142,Larynx,Right iTBS,Tone,Noise,41,4,1,0.48065869999118105,1
14081,142,Larynx,Right iTBS,Tone,Noise,42,2,0,1.1810662999923798,1
14082,142,Larynx,Right iTBS,Tone,Noise,43,5,1,0.64031149999937,1
14083,142,Larynx,Right iTBS,Tone,Noise,44,2,0,0.7422199999855369,1
14084,142,Larynx,Right iTBS,Tone,Noise,45,3,1,0.6837584000022622,1
14085,142,Larynx,Right iTBS,Tone,Noise,46,2,0,0.632299999997485,1
14086,142,Larynx,Right iTBS,Tone,Noise,47,5,1,0.6053164000040849,1
14087,142,Larynx,Right iTBS,Tone,Noise,48,1,0,0.641213199996855,1
14088,142,Larynx,Right iTBS,Tone,Noise,49,3,0,0.6466009000141639,1
14089,142,Larynx,Right iTBS,Tone,Noise,50,4,1,0.516195200005313,1
14090,142,Larynx,Right iTBS,Tone,Noise,51,3,0,0.713128300005337,1
14091,142,Larynx,Right iTBS,Tone,Noise,52,5,1,0.599513200024376,1
14092,142,Larynx,Right iTBS,Tone,Noise,53,4,1,0.636594199982937,1
14093,142,Larynx,Right iTBS,Tone,Noise,54,4,0,0.713552100001834,1
14094,142,Larynx,Right iTBS,Tone,Noise,55,2,0,0.670899699995061,1
14095,142,Larynx,Right iTBS,Tone,Noise,56,4,1,0.541596499999287,1
14096,142,Larynx,Right iTBS,Tone,Noise,57,3,1,0.7885818999784531,1
14097,142,Larynx,Right iTBS,Tone,Noise,58,1,1,0.5497086000104899,1
14098,142,Larynx,Right iTBS,Tone,Noise,59,2,0,0.6404263000003989,1
14099,142,Larynx,Right iTBS,Tone,Noise,60,3,0,0.741476800001692,1
14100,142,Larynx,Right iTBS,Tone,Noise,61,5,1,0.542732400004752,1
14101,142,Larynx,Right iTBS,Tone,Noise,62,4,1,0.6198582000215539,1
14102,142,Larynx,Right iTBS,Tone,Noise,63,1,0,0.588106699986383,1
14103,142,Larynx,Right iTBS,Tone,Noise,64,5,1,0.657364299986511,1
14104,142,Larynx,Right iTBS,Tone,Noise,65,2,0,0.6751688999938779,1
14105,142,Larynx,Right iTBS,Tone,Noise,66,3,0,0.7279091000091279,1
14106,142,Larynx,Right iTBS,Tone,Noise,67,1,0,0.702346300007775,1
14107,142,Larynx,Right iTBS,Tone,Noise,68,4,1,0.497865999990609,1
14108,142,Larynx,Right iTBS,Tone,Noise,69,1,0,0.568133099994157,1
14109,142,Larynx,Right iTBS,Tone,Noise,70,1,0,0.5869869999878571,1
14110,142,Larynx,Right iTBS,Tone,Noise,71,3,1,0.680238599976292,1
14111,142,Larynx,Right iTBS,Tone,Noise,72,5,1,0.720321699976921,1
14112,142,Larynx,Right iTBS,Tone,Noise,73,2,0,0.627041699975962,1
14113,142,Larynx,Right iTBS,Tone,Noise,74,4,1,0.6550023999880071,1
14114,142,Larynx,Right iTBS,Tone,Noise,75,2,0,0.7043014999944721,1
14115,142,Larynx,Right iTBS,Tone,Noise,76,3,0,0.6547169999976179,1
14116,142,Larynx,Right iTBS,Tone,Noise,77,3,0,0.751341799972579,1
14117,142,Larynx,Right iTBS,Tone,Noise,78,3,1,1.1154190000088402,1
14118,142,Larynx,Right iTBS,Tone,Noise,79,2,0,0.648843200004194,1
14119,142,Larynx,Right iTBS,Tone,Noise,80,4,1,0.880101699993247,1
14120,142,Larynx,Right iTBS,Tone,Noise,81,4,1,0.742400499992073,1
14121,142,Larynx,Right iTBS,Tone,Noise,82,2,0,0.527150999987498,1
14122,142,Larynx,Right iTBS,Tone,Noise,83,3,1,0.8245946000097321,1
14123,142,Larynx,Right iTBS,Tone,Noise,84,3,0,0.680055500008166,1
14124,142,Larynx,Right iTBS,Tone,Noise,85,1,0,0.683001299999887,1
14125,142,Larynx,Right iTBS,Tone,Noise,86,4,1,0.461364899994805,1
14126,142,Larynx,Right iTBS,Tone,Noise,87,3,1,0.653154300001916,1
14127,142,Larynx,Right iTBS,Tone,Noise,88,2,0,0.547442299983231,1
14128,142,Larynx,Right iTBS,Tone,Noise,89,5,1,0.5406265000056011,1
14129,142,Larynx,Right iTBS,Tone,Noise,90,1,0,0.7028606999956539,1
14130,142,Larynx,Right iTBS,Tone,Noise,91,5,0,0.679387999989558,1
14131,142,Larynx,Right iTBS,Tone,Noise,92,4,1,0.607755100005306,1
14132,142,Larynx,Right iTBS,Tone,Noise,93,3,0,0.839415199996438,1
14133,142,Larynx,Right iTBS,Tone,Noise,94,1,0,0.726515799993649,1
14134,142,Larynx,Right iTBS,Tone,Noise,95,5,1,0.5313806000049229,1
14135,142,Larynx,Right iTBS,Tone,Noise,96,3,0,0.719839700002922,1
14136,142,Larynx,Right iTBS,Tone,Noise,97,4,1,0.539975799998501,1
14137,142,Larynx,Right iTBS,Tone,Noise,98,3,0,0.6738097000052221,1
14138,142,Larynx,Right iTBS,Tone,Noise,99,2,0,0.598176400002558,1
14139,142,Larynx,Right iTBS,Tone,Noise,100,3,0,0.6651861999998799,1
14140,142,Larynx,Right iTBS,Tone,Noise,101,3,1,0.655051699985052,1
14141,142,Larynx,Right iTBS,Tone,Noise,102,2,0,0.596796700003324,1
14142,142,Larynx,Right iTBS,Tone,Noise,103,5,1,0.5716253000136929,1
14143,142,Larynx,Right iTBS,Tone,Noise,104,5,0,0.5289082000090279,1
14144,142,Larynx,Right iTBS,Tone,Noise,105,1,1,0.558918499998981,1
14145,142,Larynx,Right iTBS,Tone,Noise,106,3,0,0.623183399991831,1
14146,142,Larynx,Right iTBS,Tone,Noise,107,4,1,0.560762599983718,1
14147,142,Larynx,Right iTBS,Tone,Noise,108,2,0,0.593044199980795,1
14148,142,Larynx,Right iTBS,Tone,Noise,109,3,0,0.674299800011795,1
14149,142,Larynx,Right iTBS,Tone,Noise,110,3,1,0.746251700009452,1
14150,142,Larynx,Right iTBS,Tone,Noise,111,2,0,0.610319200000959,1
14151,142,Larynx,Right iTBS,Tone,Noise,112,1,0,0.6318005000066479,1
14152,142,Larynx,Right iTBS,Tone,Noise,113,4,1,0.5125883999862709,1
14153,142,Larynx,Right iTBS,Tone,Noise,114,5,1,0.8069129000068641,1
14154,142,Larynx,Right iTBS,Tone,Noise,115,1,0,0.659625499974936,1
14155,142,Larynx,Right iTBS,Tone,Noise,116,2,0,0.5612303999951109,1
14156,142,Larynx,Right iTBS,Tone,Noise,117,4,1,0.658793699985836,1
14157,142,Larynx,Right iTBS,Tone,Noise,118,3,0,0.7461305000178979,1
14158,142,Larynx,Right iTBS,Tone,Noise,119,4,1,0.6141207999899051,1
14159,142,Larynx,Right iTBS,Tone,Noise,120,2,0,0.6539101000234949,1
14160,142,Larynx,Right iTBS,Tone,Noise,121,1,0,0.6119502999936229,1
14161,142,Larynx,Right iTBS,Tone,Noise,122,1,0,0.770100199995795,1
14162,142,Larynx,Right iTBS,Tone,Noise,123,3,1,0.552687400020659,1
14163,142,Larynx,Right iTBS,Tone,Noise,124,3,0,0.66898200000287,1
14164,142,Larynx,Right iTBS,Tone,Noise,125,5,1,0.65599729999667,1
14165,142,Larynx,Right iTBS,Tone,Noise,126,5,1,0.637220399978105,1
14166,142,Larynx,Right iTBS,Tone,Noise,127,3,0,0.704506699985359,1
14167,142,Larynx,Right iTBS,Tone,Noise,128,3,0,0.549699600000167,1
14168,142,Larynx,Right iTBS,Tone,Noise,129,3,1,0.7302657999971421,1
14169,142,Larynx,Right iTBS,Tone,Noise,130,4,1,0.7597492999921089,1
14170,142,Larynx,Right iTBS,Tone,Noise,131,2,0,0.6825048000027889,1
14171,142,Larynx,Right iTBS,Tone,Noise,132,3,1,0.938027800002601,1
14172,142,Larynx,Right iTBS,Tone,Noise,133,4,1,0.760313899983885,1
14173,142,Larynx,Right iTBS,Tone,Noise,134,5,1,0.626379099994665,1
14174,142,Larynx,Right iTBS,Tone,Noise,135,4,1,0.9672674000030379,1
14175,142,Larynx,Right iTBS,Tone,Noise,136,5,1,0.724944099987624,1
14176,142,Larynx,Right iTBS,Tone,Noise,137,3,0,0.7432889000046999,1
14177,142,Larynx,Right iTBS,Tone,Noise,138,2,0,0.7682946999848349,1
14178,142,Larynx,Right iTBS,Tone,Noise,139,3,1,0.553077000018675,1
14179,142,Larynx,Right iTBS,Tone,Noise,140,4,0,0.7473975000029899,1
14180,142,Larynx,Right iTBS,Tone,Noise,141,1,0,0.9042529999860559,1
14181,142,Larynx,Right iTBS,Tone,Noise,142,1,0,0.6741790999949441,1
14182,142,Larynx,Right iTBS,Tone,Noise,143,2,0,0.648819199996069,1
14183,142,Larynx,Right iTBS,Tone,Noise,144,2,0,0.8294612999889069,1
14184,142,Larynx,Right iTBS,Tone,Noise,145,5,1,0.811270300007891,1
14185,142,Larynx,Right iTBS,Tone,Noise,146,4,1,0.58723779997672,1
14186,142,Larynx,Right iTBS,Tone,Noise,147,2,0,0.8175871999992521,1
14187,142,Larynx,Right iTBS,Tone,Noise,148,4,1,0.654223799996544,1
14188,142,Larynx,Right iTBS,Tone,Noise,149,2,1,0.7383903000154529,1
14189,142,Larynx,Right iTBS,Tone,Noise,150,3,0,0.6959802000201311,1
14190,142,Larynx,Right iTBS,Tone,Noise,151,1,0,0.7781169000081719,1
14191,142,Larynx,Right iTBS,Tone,Noise,152,1,0,0.7191565999819429,1
14192,142,Larynx,Right iTBS,Tone,Noise,153,3,1,0.6597129000001589,1
14193,142,Larynx,Right iTBS,Tone,Noise,154,4,1,0.73170360000222,1
14194,142,Larynx,Right iTBS,Tone,Noise,155,2,0,0.646059599996079,1
14195,142,Larynx,Right iTBS,Tone,Noise,156,5,1,0.6612317000108311,1
15288,142,Larynx,Sham,Tone,Noise,1,2,0,0.8485331000010771,1
15289,142,Larynx,Sham,Tone,Noise,2,3,0,0.8498532999983579,1
15290,142,Larynx,Sham,Tone,Noise,3,5,1,0.62902330000361,1
15291,142,Larynx,Sham,Tone,Noise,4,5,1,0.7811605000024431,1
15292,142,Larynx,Sham,Tone,Noise,5,2,0,0.8204712000006109,1
15293,142,Larynx,Sham,Tone,Noise,6,4,1,0.621602300001541,1
15294,142,Larynx,Sham,Tone,Noise,7,1,0,0.7109864000012751,1
15295,142,Larynx,Sham,Tone,Noise,8,2,1,0.606359800000064,1
15296,142,Larynx,Sham,Tone,Noise,9,3,0,0.64297230000011,1
15297,142,Larynx,Sham,Tone,Noise,10,3,1,0.5429867000020749,1
15298,142,Larynx,Sham,Tone,Noise,11,1,0,0.6598586000000071,1
15299,142,Larynx,Sham,Tone,Noise,12,4,1,0.753619200000685,1
15300,142,Larynx,Sham,Tone,Noise,13,3,1,0.46857939999972603,1
15301,142,Larynx,Sham,Tone,Noise,14,3,1,0.52624250000008,1
15302,142,Larynx,Sham,Tone,Noise,15,1,0,0.9996721999996229,1
15303,142,Larynx,Sham,Tone,Noise,16,2,1,0.791801999999734,1
15304,142,Larynx,Sham,Tone,Noise,17,3,1,0.9299192999969821,1
15305,142,Larynx,Sham,Tone,Noise,18,5,0,1.16293719999885,1
15306,142,Larynx,Sham,Tone,Noise,19,5,1,0.609384499999578,1
15307,142,Larynx,Sham,Tone,Noise,20,3,1,0.588406699996995,1
15308,142,Larynx,Sham,Tone,Noise,21,4,1,0.8717237999990181,1
15309,142,Larynx,Sham,Tone,Noise,22,1,0,0.5860655999968001,1
15310,142,Larynx,Sham,Tone,Noise,23,3,0,0.6916782000007521,1
15311,142,Larynx,Sham,Tone,Noise,24,5,1,0.609853000001749,1
15312,142,Larynx,Sham,Tone,Noise,25,2,0,0.725115299999743,1
15313,142,Larynx,Sham,Tone,Noise,26,3,0,0.6641728999966291,1
15314,142,Larynx,Sham,Tone,Noise,27,4,0,0.7225093999986709,1
15315,142,Larynx,Sham,Tone,Noise,28,2,1,0.693096700000751,1
15316,142,Larynx,Sham,Tone,Noise,29,4,0,0.7209609000019549,1
15317,142,Larynx,Sham,Tone,Noise,30,4,1,0.631969800000661,1
15318,142,Larynx,Sham,Tone,Noise,31,3,1,1.014349699999,1
15319,142,Larynx,Sham,Tone,Noise,32,4,0,0.5640628000001021,1
15320,142,Larynx,Sham,Tone,Noise,33,5,1,0.5881594999991651,1
15321,142,Larynx,Sham,Tone,Noise,34,1,0,0.6420109999999111,1
15322,142,Larynx,Sham,Tone,Noise,35,4,1,0.652017899999919,1
15323,142,Larynx,Sham,Tone,Noise,36,2,0,0.736863500002073,1
15324,142,Larynx,Sham,Tone,Noise,37,2,0,0.8121773000020771,1
15325,142,Larynx,Sham,Tone,Noise,38,3,0,0.660808499997074,1
15326,142,Larynx,Sham,Tone,Noise,39,1,1,0.550306799999817,1
15327,142,Larynx,Sham,Tone,Noise,40,3,0,1.10470400000122,1
15328,142,Larynx,Sham,Tone,Noise,41,3,0,0.636515199999849,1
15329,142,Larynx,Sham,Tone,Noise,42,5,1,0.49473659999784997,1
15330,142,Larynx,Sham,Tone,Noise,43,1,0,0.778463399998145,1
15331,142,Larynx,Sham,Tone,Noise,44,2,0,0.688589599998522,1
15332,142,Larynx,Sham,Tone,Noise,45,3,0,0.747033600000577,1
15333,142,Larynx,Sham,Tone,Noise,46,2,0,0.7884078999995842,1
15334,142,Larynx,Sham,Tone,Noise,47,2,1,0.6707413000003729,1
15335,142,Larynx,Sham,Tone,Noise,48,5,1,0.552561399999831,1
15336,142,Larynx,Sham,Tone,Noise,49,4,1,0.618821200001548,1
15337,142,Larynx,Sham,Tone,Noise,50,5,1,0.6670778999978211,1
15338,142,Larynx,Sham,Tone,Noise,51,1,0,0.48903669999708704,1
15339,142,Larynx,Sham,Tone,Noise,52,1,0,0.528193199999805,1
15340,142,Larynx,Sham,Tone,Noise,53,4,1,0.6649046999991701,1
15341,142,Larynx,Sham,Tone,Noise,54,5,1,0.854055399999197,1
15342,142,Larynx,Sham,Tone,Noise,55,2,0,0.561980499998754,1
15343,142,Larynx,Sham,Tone,Noise,56,4,1,0.51953809999759,1
15344,142,Larynx,Sham,Tone,Noise,57,4,1,0.6872788000000579,1
15345,142,Larynx,Sham,Tone,Noise,58,3,0,0.6032653000002031,1
15346,142,Larynx,Sham,Tone,Noise,59,3,0,0.968957500001125,1
15347,142,Larynx,Sham,Tone,Noise,60,2,1,0.542008599997644,1
15348,142,Larynx,Sham,Tone,Noise,61,1,0,0.675412000000506,1
15349,142,Larynx,Sham,Tone,Noise,62,4,1,0.7341851999990471,1
15350,142,Larynx,Sham,Tone,Noise,63,3,0,0.557666999997309,1
15351,142,Larynx,Sham,Tone,Noise,64,3,0,0.624731100000645,1
15352,142,Larynx,Sham,Tone,Noise,65,3,0,0.588202300001285,1
15353,142,Larynx,Sham,Tone,Noise,66,1,0,0.758747900003073,1
15354,142,Larynx,Sham,Tone,Noise,67,5,1,0.544602500001929,1
15355,142,Larynx,Sham,Tone,Noise,68,2,0,0.6976168000001051,1
15356,142,Larynx,Sham,Tone,Noise,69,4,1,0.6437273000010459,1
15357,142,Larynx,Sham,Tone,Noise,70,2,0,0.718219499998668,1
15358,142,Larynx,Sham,Tone,Noise,71,3,1,0.612431199999264,1
15359,142,Larynx,Sham,Tone,Noise,72,3,0,0.6812304000013679,1
15360,142,Larynx,Sham,Tone,Noise,73,2,0,0.697587499998917,1
15361,142,Larynx,Sham,Tone,Noise,74,4,1,0.7216255000021189,1
15362,142,Larynx,Sham,Tone,Noise,75,3,0,0.79210989999774,1
15363,142,Larynx,Sham,Tone,Noise,76,5,1,0.904421899998852,1
15364,142,Larynx,Sham,Tone,Noise,77,1,0,0.568565800000215,1
15365,142,Larynx,Sham,Tone,Noise,78,4,1,0.498615500000597,1
15366,142,Larynx,Sham,Tone,Noise,79,5,1,0.832690200000798,1
15367,142,Larynx,Sham,Tone,Noise,80,3,0,0.7050319000009041,1
15368,142,Larynx,Sham,Tone,Noise,81,3,0,0.624990599997545,1
15369,142,Larynx,Sham,Tone,Noise,82,4,1,0.5291649999999211,1
15370,142,Larynx,Sham,Tone,Noise,83,3,1,0.490818599999329,1
15371,142,Larynx,Sham,Tone,Noise,84,4,1,0.8545479999993401,1
15372,142,Larynx,Sham,Tone,Noise,85,1,0,0.6604251999997359,1
15373,142,Larynx,Sham,Tone,Noise,86,3,0,0.6662954000021271,1
15374,142,Larynx,Sham,Tone,Noise,87,2,1,0.609974499999225,1
15375,142,Larynx,Sham,Tone,Noise,88,1,0,0.661649199999374,1
15376,142,Larynx,Sham,Tone,Noise,89,4,0,0.643202700000984,1
15377,142,Larynx,Sham,Tone,Noise,90,3,0,0.6925103999965361,1
15378,142,Larynx,Sham,Tone,Noise,91,3,1,0.654295800002728,1
15379,142,Larynx,Sham,Tone,Noise,92,1,0,0.956473600002937,1
15380,142,Larynx,Sham,Tone,Noise,93,5,1,0.628650800001196,1
15381,142,Larynx,Sham,Tone,Noise,94,2,0,0.622915199997806,1
15382,142,Larynx,Sham,Tone,Noise,95,1,0,0.678208400000585,1
15383,142,Larynx,Sham,Tone,Noise,96,4,1,0.560766400001739,1
15384,142,Larynx,Sham,Tone,Noise,97,4,1,0.5158521000012121,1
15385,142,Larynx,Sham,Tone,Noise,98,2,0,0.678938100001687,1
15386,142,Larynx,Sham,Tone,Noise,99,2,0,0.825157000002946,1
15387,142,Larynx,Sham,Tone,Noise,100,4,1,0.52215200000137,1
15388,142,Larynx,Sham,Tone,Noise,101,3,0,0.7086400999978649,1
15389,142,Larynx,Sham,Tone,Noise,102,2,0,0.574083399998926,1
15390,142,Larynx,Sham,Tone,Noise,103,3,0,0.612449800002651,1
15391,142,Larynx,Sham,Tone,Noise,104,3,0,0.621856800000387,1
15392,142,Larynx,Sham,Tone,Noise,105,5,1,0.558454800000618,1
15393,142,Larynx,Sham,Tone,Noise,106,2,0,0.693050199999561,1
15394,142,Larynx,Sham,Tone,Noise,107,2,0,0.677209000001312,1
15395,142,Larynx,Sham,Tone,Noise,108,4,1,0.508600599998317,1
15396,142,Larynx,Sham,Tone,Noise,109,5,1,0.68837540000095,1
15397,142,Larynx,Sham,Tone,Noise,110,1,0,0.628478700000414,1
15398,142,Larynx,Sham,Tone,Noise,111,5,1,0.6628373999992621,1
15399,142,Larynx,Sham,Tone,Noise,112,1,0,0.549949399999605,1
15400,142,Larynx,Sham,Tone,Noise,113,4,1,0.753565800001525,1
15401,142,Larynx,Sham,Tone,Noise,114,3,0,0.651772600002005,1
15402,142,Larynx,Sham,Tone,Noise,115,2,0,0.763781199999357,1
15403,142,Larynx,Sham,Tone,Noise,116,3,1,0.563612400001148,1
15404,142,Larynx,Sham,Tone,Noise,117,5,1,0.616719699999521,1
15405,142,Larynx,Sham,Tone,Noise,118,4,1,0.740747400002874,1
15406,142,Larynx,Sham,Tone,Noise,119,5,1,0.6961191999980659,1
15407,142,Larynx,Sham,Tone,Noise,120,2,0,0.536082700000406,1
15408,142,Larynx,Sham,Tone,Noise,121,3,0,0.613847500000702,1
15409,142,Larynx,Sham,Tone,Noise,122,4,1,0.5841885000008921,1
15410,142,Larynx,Sham,Tone,Noise,123,4,1,0.62944719999723,1
15411,142,Larynx,Sham,Tone,Noise,124,2,0,0.526701999999204,1
15412,142,Larynx,Sham,Tone,Noise,125,2,0,0.625565800000913,1
15413,142,Larynx,Sham,Tone,Noise,126,3,1,0.5548191999987471,1
15414,142,Larynx,Sham,Tone,Noise,127,5,1,0.88201609999669,1
15415,142,Larynx,Sham,Tone,Noise,128,1,0,0.784342000002653,1
15416,142,Larynx,Sham,Tone,Noise,129,4,0,0.578783299999486,1
15417,142,Larynx,Sham,Tone,Noise,130,3,0,0.7440002000003009,1
15418,142,Larynx,Sham,Tone,Noise,131,1,0,0.871390299998893,1
15419,142,Larynx,Sham,Tone,Noise,132,3,1,0.7309883000016271,1
15420,142,Larynx,Sham,Tone,Noise,133,3,1,0.639191900001606,1
15421,142,Larynx,Sham,Tone,Noise,134,1,1,1.04795390000072,1
15422,142,Larynx,Sham,Tone,Noise,135,2,1,1.15864330000113,1
15423,142,Larynx,Sham,Tone,Noise,136,5,1,0.9379632000018321,1
15424,142,Larynx,Sham,Tone,Noise,137,5,0,0.706471699999383,1
15425,142,Larynx,Sham,Tone,Noise,138,4,1,0.724138500001573,1
15426,142,Larynx,Sham,Tone,Noise,139,3,0,0.647480200001155,1
15427,142,Larynx,Sham,Tone,Noise,140,3,0,0.9633432000009631,1
15428,142,Larynx,Sham,Tone,Noise,141,5,0,0.815747299999202,1
15429,142,Larynx,Sham,Tone,Noise,142,4,1,0.734840000000986,1
15430,142,Larynx,Sham,Tone,Noise,143,3,0,1.03454099999726,1
15431,142,Larynx,Sham,Tone,Noise,144,2,0,0.9550641000023459,1
15432,142,Larynx,Sham,Tone,Noise,145,4,1,0.815613599999779,1
15433,142,Larynx,Sham,Tone,Noise,146,1,0,0.659484600000724,1
15434,142,Larynx,Sham,Tone,Noise,147,1,0,0.7123107000006709,1
15435,142,Larynx,Sham,Tone,Noise,148,3,0,0.6539852999994761,1
15436,142,Larynx,Sham,Tone,Noise,149,2,1,0.6008290999998279,1
15437,142,Larynx,Sham,Tone,Noise,150,1,0,0.626550200002384,1
15438,142,Larynx,Sham,Tone,Noise,151,5,1,0.554309700000886,1
15439,142,Larynx,Sham,Tone,Noise,152,2,0,0.610873400000855,1
15440,142,Larynx,Sham,Tone,Noise,153,4,1,0.50749359999827,1
15441,142,Larynx,Sham,Tone,Noise,154,3,0,0.7692647000003492,1
15442,142,Larynx,Sham,Tone,Noise,155,3,1,0.8415232999977891,1
15443,142,Larynx,Sham,Tone,Noise,156,2,0,0.6848255000004431,1
17160,201,Larynx,Right iTBS,Tone,Noise,1,3,0,1.6111889999592701,1
17161,201,Larynx,Right iTBS,Tone,Noise,2,1,0,0.8977791001088921,1
17162,201,Larynx,Right iTBS,Tone,Noise,3,3,1,0.7600707000819971,1
17163,201,Larynx,Right iTBS,Tone,Noise,4,5,1,0.697677099960856,1
17164,201,Larynx,Right iTBS,Tone,Noise,5,2,1,0.6746604000218211,1
17165,201,Larynx,Right iTBS,Tone,Noise,6,1,1,0.7885410999879241,1
17166,201,Larynx,Right iTBS,Tone,Noise,7,5,1,0.7735591999953609,1
17167,201,Larynx,Right iTBS,Tone,Noise,8,1,1,1.00265200005379,1
17168,201,Larynx,Right iTBS,Tone,Noise,9,1,1,0.8943424999015409,1
17169,201,Larynx,Right iTBS,Tone,Noise,10,3,1,0.8745112000033259,1
17170,201,Larynx,Right iTBS,Tone,Noise,11,1,1,1.00382359989453,1
17171,201,Larynx,Right iTBS,Tone,Noise,12,2,1,0.9825312999309971,1
17172,201,Larynx,Right iTBS,Tone,Noise,13,2,0,0.7209157000761479,1
17173,201,Larynx,Right iTBS,Tone,Noise,14,3,1,0.663869399926625,1
17174,201,Larynx,Right iTBS,Tone,Noise,15,5,1,0.647096800035797,1
17175,201,Larynx,Right iTBS,Tone,Noise,16,3,1,0.6552400999935339,1
17176,201,Larynx,Right iTBS,Tone,Noise,17,3,1,0.702099799993448,1
17177,201,Larynx,Right iTBS,Tone,Noise,18,4,1,0.662033400032669,1
17178,201,Larynx,Right iTBS,Tone,Noise,19,3,1,0.641517400043085,1
17179,201,Larynx,Right iTBS,Tone,Noise,20,4,1,0.682436799979769,1
17180,201,Larynx,Right iTBS,Tone,Noise,21,2,1,0.65623200009577,1
17181,201,Larynx,Right iTBS,Tone,Noise,22,5,1,0.666417000000365,1
17182,201,Larynx,Right iTBS,Tone,Noise,23,2,1,0.7055071999784559,1
17183,201,Larynx,Right iTBS,Tone,Noise,24,5,1,0.661098500015214,1
17184,201,Larynx,Right iTBS,Tone,Noise,25,5,1,0.7290023999521509,1
17185,201,Larynx,Right iTBS,Tone,Noise,26,4,1,0.6544877999695021,1
17186,201,Larynx,Right iTBS,Tone,Noise,27,4,1,0.6654262000229211,1
17187,201,Larynx,Right iTBS,Tone,Noise,28,3,1,0.7457112000556658,1
