,subj_idx,group_idx,turn_type,task_type,snr_type,trial_num,step_att,response,rt,step_unatnd
1716,55,Larynx,Right iTBS,Cons,Noise,1,3,1,2.09501739998814,1
1717,55,Larynx,Right iTBS,Cons,Noise,2,2,0,1.02434729994275,1
1718,55,Larynx,Right iTBS,Cons,Noise,3,3,0,0.818253000034019,1
1719,55,Larynx,Right iTBS,Cons,Noise,4,5,1,0.670370599953458,1
1720,55,Larynx,Right iTBS,Cons,Noise,5,5,1,0.7523353999713441,1
1721,55,Larynx,Right iTBS,Cons,Noise,6,3,0,1.0776579999364901,1
1722,55,Larynx,Right iTBS,Cons,Noise,7,1,0,0.9530286999652159,1
1723,55,Larynx,Right iTBS,Cons,Noise,8,3,0,0.9253127999836579,1
1724,55,Larynx,Right iTBS,Cons,Noise,9,3,1,0.6432902000378821,1
1725,55,Larynx,Right iTBS,Cons,Noise,10,4,1,0.687802299973555,1
1726,55,Larynx,Right iTBS,Cons,Noise,11,3,1,0.738548900000751,1
1727,55,Larynx,Right iTBS,Cons,Noise,12,1,0,0.5395206999965011,1
1728,55,Larynx,Right iTBS,Cons,Noise,13,5,1,0.542983899940737,1
1729,55,Larynx,Right iTBS,Cons,Noise,14,4,1,0.50452930002939,1
1730,55,Larynx,Right iTBS,Cons,Noise,15,1,0,0.5732064000330871,1
1731,55,Larynx,Right iTBS,Cons,Noise,16,5,1,0.522079600021243,1
1732,55,Larynx,Right iTBS,Cons,Noise,17,2,0,0.799520500004292,1
1733,55,Larynx,Right iTBS,Cons,Noise,18,4,1,0.694596500019543,1
1734,55,Larynx,Right iTBS,Cons,Noise,19,2,1,0.860054800054058,1
1735,55,Larynx,Right iTBS,Cons,Noise,20,2,1,0.7056614999892191,1
1736,55,Larynx,Right iTBS,Cons,Noise,21,1,0,0.5944197999779139,1
1737,55,Larynx,Right iTBS,Cons,Noise,22,2,1,0.7779261999530721,1
1738,55,Larynx,Right iTBS,Cons,Noise,23,3,1,0.716584100038745,1
1739,55,Larynx,Right iTBS,Cons,Noise,24,2,1,0.812410000013188,1
1740,55,Larynx,Right iTBS,Cons,Noise,25,4,0,0.653208600007929,1
1741,55,Larynx,Right iTBS,Cons,Noise,26,2,0,0.85099419998005,1
1742,55,Larynx,Right iTBS,Cons,Noise,27,4,1,0.604947600048035,1
1743,55,Larynx,Right iTBS,Cons,Noise,28,3,1,1.1537116999970702,1
1744,55,Larynx,Right iTBS,Cons,Noise,29,5,1,1.03308680001646,1
1745,55,Larynx,Right iTBS,Cons,Noise,30,3,0,0.674598000012338,1
1746,55,Larynx,Right iTBS,Cons,Noise,31,4,1,0.556672099977732,1
1747,55,Larynx,Right iTBS,Cons,Noise,32,2,1,0.722170200082473,1
1748,55,Larynx,Right iTBS,Cons,Noise,33,3,1,1.0681016000453398,1
1749,55,Larynx,Right iTBS,Cons,Noise,34,4,1,1.34922949993052,1
1750,55,Larynx,Right iTBS,Cons,Noise,35,1,0,0.835721399984322,1
1751,55,Larynx,Right iTBS,Cons,Noise,36,4,1,0.592723899986595,1
1752,55,Larynx,Right iTBS,Cons,Noise,37,3,0,0.6565418000100179,1
1753,55,Larynx,Right iTBS,Cons,Noise,38,5,1,1.01265030005015,1
1754,55,Larynx,Right iTBS,Cons,Noise,39,1,0,0.69712560006883,1
1755,55,Larynx,Right iTBS,Cons,Noise,40,4,1,0.66184549999889,1
1756,55,Larynx,Right iTBS,Cons,Noise,41,3,0,0.6986848000669851,1
1757,55,Larynx,Right iTBS,Cons,Noise,42,1,0,3.68141550000291,1
1758,55,Larynx,Right iTBS,Cons,Noise,43,1,1,1.09062399994582,1
1759,55,Larynx,Right iTBS,Cons,Noise,44,3,1,1.27405359991826,1
1760,55,Larynx,Right iTBS,Cons,Noise,45,1,0,0.769249700009823,1
1761,55,Larynx,Right iTBS,Cons,Noise,46,5,1,0.678048699977808,1
1762,55,Larynx,Right iTBS,Cons,Noise,47,4,1,0.857239700038917,1
1763,55,Larynx,Right iTBS,Cons,Noise,48,4,1,1.17216049996205,1
1764,55,Larynx,Right iTBS,Cons,Noise,49,2,0,0.6955263999989261,1
1765,55,Larynx,Right iTBS,Cons,Noise,50,2,0,0.885279400041327,1
1766,55,Larynx,Right iTBS,Cons,Noise,51,2,1,0.615568400011398,1
1767,55,Larynx,Right iTBS,Cons,Noise,52,3,1,0.602812799974345,1
1768,55,Larynx,Right iTBS,Cons,Noise,53,3,1,0.955770500004292,1
1769,55,Larynx,Right iTBS,Cons,Noise,54,4,0,0.323544200044125,1
1770,55,Larynx,Right iTBS,Cons,Noise,55,3,0,0.97576200007461,1
1771,55,Larynx,Right iTBS,Cons,Noise,56,4,1,0.654483499936759,1
1772,55,Larynx,Right iTBS,Cons,Noise,57,5,1,0.777946500107646,1
1773,55,Larynx,Right iTBS,Cons,Noise,58,2,1,0.7241224000463259,1
1774,55,Larynx,Right iTBS,Cons,Noise,59,5,1,1.30344349995721,1
1775,55,Larynx,Right iTBS,Cons,Noise,60,3,0,2.50973239995074,1
1776,55,Larynx,Right iTBS,Cons,Noise,61,5,1,3.64924689999316,1
1777,55,Larynx,Right iTBS,Cons,Noise,62,3,0,0.9364775998983531,1
1778,55,Larynx,Right iTBS,Cons,Noise,63,2,0,0.696361099951901,1
1779,55,Larynx,Right iTBS,Cons,Noise,64,3,1,0.622115399921313,1
1780,55,Larynx,Right iTBS,Cons,Noise,65,1,0,0.917105100001208,1
1781,55,Larynx,Right iTBS,Cons,Noise,66,4,1,0.5841626999899749,1
1782,55,Larynx,Right iTBS,Cons,Noise,67,2,0,0.584024999989197,1
1783,55,Larynx,Right iTBS,Cons,Noise,68,4,1,0.6125138000352309,1
1784,55,Larynx,Right iTBS,Cons,Noise,69,2,0,0.562845299951732,1
1785,55,Larynx,Right iTBS,Cons,Noise,70,1,0,0.75076490000356,1
1786,55,Larynx,Right iTBS,Cons,Noise,71,3,1,0.507958099944517,1
1787,55,Larynx,Right iTBS,Cons,Noise,72,4,1,0.66415650001727,1
1788,55,Larynx,Right iTBS,Cons,Noise,73,3,0,0.53143520001322,1
1789,55,Larynx,Right iTBS,Cons,Noise,74,2,0,0.729017100064084,1
1790,55,Larynx,Right iTBS,Cons,Noise,75,3,1,0.540189299965277,1
1791,55,Larynx,Right iTBS,Cons,Noise,76,5,0,0.9262558999471371,1
1792,55,Larynx,Right iTBS,Cons,Noise,77,1,0,0.650747500010766,1
1793,55,Larynx,Right iTBS,Cons,Noise,78,5,1,0.47532189998310104,1
1794,55,Larynx,Right iTBS,Cons,Noise,79,5,1,0.6848064999794591,1
1795,55,Larynx,Right iTBS,Cons,Noise,80,2,1,0.829334100009874,1
1796,55,Larynx,Right iTBS,Cons,Noise,81,4,1,0.904364000074565,1
1797,55,Larynx,Right iTBS,Cons,Noise,82,2,0,0.525833399966359,1
1798,55,Larynx,Right iTBS,Cons,Noise,83,1,0,0.791148399934173,1
1799,55,Larynx,Right iTBS,Cons,Noise,84,3,1,0.997255100053735,1
1800,55,Larynx,Right iTBS,Cons,Noise,85,3,1,0.885995399905369,1
1801,55,Larynx,Right iTBS,Cons,Noise,86,2,0,0.7030210999073461,1
1802,55,Larynx,Right iTBS,Cons,Noise,87,2,0,1.1044084000168402,1
1803,55,Larynx,Right iTBS,Cons,Noise,88,1,0,0.737546100048348,1
1804,55,Larynx,Right iTBS,Cons,Noise,89,3,1,0.600762400077656,1
1805,55,Larynx,Right iTBS,Cons,Noise,90,4,1,0.660390799981542,1
1806,55,Larynx,Right iTBS,Cons,Noise,91,3,1,0.7871823000023142,1
1807,55,Larynx,Right iTBS,Cons,Noise,92,5,1,0.7392729000421241,1
1808,55,Larynx,Right iTBS,Cons,Noise,93,1,0,0.6058910000137979,1
1809,55,Larynx,Right iTBS,Cons,Noise,94,4,1,0.45785190002061404,1
1810,55,Larynx,Right iTBS,Cons,Noise,95,5,1,0.80480839998927,1
1811,55,Larynx,Right iTBS,Cons,Noise,96,3,1,0.677066900068894,1
1812,55,Larynx,Right iTBS,Cons,Noise,97,2,0,0.703057500068098,1
1813,55,Larynx,Right iTBS,Cons,Noise,98,1,0,0.666384299984202,1
1814,55,Larynx,Right iTBS,Cons,Noise,99,2,1,0.6663363000843671,1
1815,55,Larynx,Right iTBS,Cons,Noise,100,3,0,0.7085519999964158,1
1816,55,Larynx,Right iTBS,Cons,Noise,101,4,0,0.59529779991135,1
1817,55,Larynx,Right iTBS,Cons,Noise,102,3,1,2.96563679992687,1
1818,55,Larynx,Right iTBS,Cons,Noise,103,5,1,0.738161299959756,1
1819,55,Larynx,Right iTBS,Cons,Noise,104,4,1,0.7460783999413249,1
1820,55,Larynx,Right iTBS,Cons,Noise,105,1,0,0.625090099987574,1
1821,55,Larynx,Right iTBS,Cons,Noise,106,2,0,0.8932682999875401,1
1822,55,Larynx,Right iTBS,Cons,Noise,107,3,1,0.5880491000134499,1
1823,55,Larynx,Right iTBS,Cons,Noise,108,5,1,0.7672566999681291,1
1824,55,Larynx,Right iTBS,Cons,Noise,109,5,1,0.6129958999808879,1
1825,55,Larynx,Right iTBS,Cons,Noise,110,4,1,0.8210241999477149,1
1826,55,Larynx,Right iTBS,Cons,Noise,111,4,1,0.9789354000240559,1
1827,55,Larynx,Right iTBS,Cons,Noise,112,4,1,0.827758400002494,1
1828,55,Larynx,Right iTBS,Cons,Noise,113,3,0,1.6646017000312001,1
1829,55,Larynx,Right iTBS,Cons,Noise,114,2,0,0.661844999995083,1
1830,55,Larynx,Right iTBS,Cons,Noise,115,1,1,0.6916289000073449,1
1831,55,Larynx,Right iTBS,Cons,Noise,116,3,1,0.7795097000198442,1
1832,55,Larynx,Right iTBS,Cons,Noise,117,3,1,0.9059494000393901,1
1833,55,Larynx,Right iTBS,Cons,Noise,118,5,1,0.756645500077866,1
1834,55,Larynx,Right iTBS,Cons,Noise,119,1,0,0.5583544999826701,1
1835,55,Larynx,Right iTBS,Cons,Noise,120,2,0,0.635252200067043,1
1836,55,Larynx,Right iTBS,Cons,Noise,121,1,0,0.8063396000070501,1
1837,55,Larynx,Right iTBS,Cons,Noise,122,3,1,1.17847970000003,1
1838,55,Larynx,Right iTBS,Cons,Noise,123,2,1,0.707037700107321,1
1839,55,Larynx,Right iTBS,Cons,Noise,124,2,1,0.6612192000029611,1
1840,55,Larynx,Right iTBS,Cons,Noise,125,3,0,0.833720399998128,1
1841,55,Larynx,Right iTBS,Cons,Noise,126,5,1,1.05784690007567,1
1842,55,Larynx,Right iTBS,Cons,Noise,127,3,1,2.38383619999513,1
1843,55,Larynx,Right iTBS,Cons,Noise,128,3,0,0.732794200070202,1
1844,55,Larynx,Right iTBS,Cons,Noise,129,3,1,0.580683999927714,1
1845,55,Larynx,Right iTBS,Cons,Noise,130,2,0,0.723324200022034,1
1846,55,Larynx,Right iTBS,Cons,Noise,131,4,1,0.7115179999964308,1
1847,55,Larynx,Right iTBS,Cons,Noise,132,4,1,0.602329999906942,1
1848,55,Larynx,Right iTBS,Cons,Noise,133,3,0,0.590854799957015,1
1849,55,Larynx,Right iTBS,Cons,Noise,134,5,1,0.5726157999597491,1
1850,55,Larynx,Right iTBS,Cons,Noise,135,3,1,0.791033299989067,1
1851,55,Larynx,Right iTBS,Cons,Noise,136,4,1,0.674962799996138,1
1852,55,Larynx,Right iTBS,Cons,Noise,137,4,1,0.807315599988215,1
1853,55,Larynx,Right iTBS,Cons,Noise,138,4,1,0.7397039000643421,1
1854,55,Larynx,Right iTBS,Cons,Noise,139,3,1,0.5608228999190029,1
1855,55,Larynx,Right iTBS,Cons,Noise,140,3,0,0.655547500005923,1
1856,55,Larynx,Right iTBS,Cons,Noise,141,4,1,0.46657030005008004,1
1857,55,Larynx,Right iTBS,Cons,Noise,142,5,1,0.684858500026166,1
1858,55,Larynx,Right iTBS,Cons,Noise,143,2,0,0.620704100001603,1
1859,55,Larynx,Right iTBS,Cons,Noise,144,1,0,0.509694900014438,1
1860,55,Larynx,Right iTBS,Cons,Noise,145,1,0,0.5425479999976229,1
1861,55,Larynx,Right iTBS,Cons,Noise,146,3,1,0.5293428000295529,1
1862,55,Larynx,Right iTBS,Cons,Noise,147,2,0,0.7158320000162349,1
1863,55,Larynx,Right iTBS,Cons,Noise,148,2,1,0.581405400065705,1
1864,55,Larynx,Right iTBS,Cons,Noise,149,1,0,0.6249892000341789,1
1865,55,Larynx,Right iTBS,Cons,Noise,150,5,1,0.514951899996959,1
1866,55,Larynx,Right iTBS,Cons,Noise,151,5,1,0.807864799979143,1
1867,55,Larynx,Right iTBS,Cons,Noise,152,4,1,0.814777699997649,1
1868,55,Larynx,Right iTBS,Cons,Noise,153,2,0,0.93045450001955,1
1869,55,Larynx,Right iTBS,Cons,Noise,154,3,1,0.616721499944106,1
1870,55,Larynx,Right iTBS,Cons,Noise,155,4,0,0.806355500011705,1
1871,55,Larynx,Right iTBS,Cons,Noise,156,1,0,0.655709399958141,1
2964,55,Larynx,Sham,Cons,Noise,1,3,0,1.5307869000826002,1
2965,55,Larynx,Sham,Cons,Noise,2,4,1,0.6821456999750811,1
2966,55,Larynx,Sham,Cons,Noise,3,4,1,0.658868899918161,1
2967,55,Larynx,Sham,Cons,Noise,4,5,1,0.6469414000166579,1
2968,55,Larynx,Sham,Cons,Noise,5,4,1,0.62145530001726,1
2969,55,Larynx,Sham,Cons,Noise,6,4,0,0.5319529999978839,1
2970,55,Larynx,Sham,Cons,Noise,7,5,0,0.71343949995935,1
2971,55,Larynx,Sham,Cons,Noise,8,5,1,0.49909990001469895,1
2972,55,Larynx,Sham,Cons,Noise,9,1,0,0.503549999906681,1
2973,55,Larynx,Sham,Cons,Noise,10,3,1,0.48702460003551096,1
2974,55,Larynx,Sham,Cons,Noise,11,5,1,0.8237498999806121,1
2975,55,Larynx,Sham,Cons,Noise,12,2,0,0.482698799925856,1
2976,55,Larynx,Sham,Cons,Noise,13,3,1,0.537001100019552,1
2977,55,Larynx,Sham,Cons,Noise,14,1,0,0.48370779992546903,1
2978,55,Larynx,Sham,Cons,Noise,15,1,1,0.49290080007631304,1
2979,55,Larynx,Sham,Cons,Noise,16,2,0,0.582844799966551,1
2980,55,Larynx,Sham,Cons,Noise,17,3,1,0.52484640001785,1
2981,55,Larynx,Sham,Cons,Noise,18,1,0,0.753753899945877,1
2982,55,Larynx,Sham,Cons,Noise,19,3,1,0.7051534999627621,1
2983,55,Larynx,Sham,Cons,Noise,20,3,1,0.6509593999944631,1
2984,55,Larynx,Sham,Cons,Noise,21,3,0,0.622055899933912,1
2985,55,Larynx,Sham,Cons,Noise,22,4,1,0.464599599945359,1
2986,55,Larynx,Sham,Cons,Noise,23,4,1,0.678987700026482,1
2987,55,Larynx,Sham,Cons,Noise,24,5,1,0.565542099997401,1
2988,55,Larynx,Sham,Cons,Noise,25,3,1,0.566953699919395,1
2989,55,Larynx,Sham,Cons,Noise,26,3,1,0.7364814000902701,1
2990,55,Larynx,Sham,Cons,Noise,27,3,1,0.48162820003926793,1
2991,55,Larynx,Sham,Cons,Noise,28,1,0,0.517724800040014,1
2992,55,Larynx,Sham,Cons,Noise,29,4,1,0.47455649997573296,1
2993,55,Larynx,Sham,Cons,Noise,30,2,1,0.662513299961574,1
2994,55,Larynx,Sham,Cons,Noise,31,2,1,0.846782799926586,1
2995,55,Larynx,Sham,Cons,Noise,32,3,1,0.519919599988498,1
2996,55,Larynx,Sham,Cons,Noise,33,4,1,0.8943163000512869,1
2997,55,Larynx,Sham,Cons,Noise,34,5,1,0.592016999959014,1
2998,55,Larynx,Sham,Cons,Noise,35,2,1,0.6112741000251839,1
2999,55,Larynx,Sham,Cons,Noise,36,2,1,0.6967818000121041,1
3000,55,Larynx,Sham,Cons,Noise,37,2,0,0.5979539999971171,1
3001,55,Larynx,Sham,Cons,Noise,38,1,0,0.612666400033049,1
3002,55,Larynx,Sham,Cons,Noise,39,2,1,0.53074319998268,1
3003,55,Larynx,Sham,Cons,Noise,40,4,1,0.516306400066242,1
3004,55,Larynx,Sham,Cons,Noise,41,3,0,1.15840950002894,1
3005,55,Larynx,Sham,Cons,Noise,42,4,1,0.787510799942538,1
3006,55,Larynx,Sham,Cons,Noise,43,1,0,0.6617557000136,1
3007,55,Larynx,Sham,Cons,Noise,44,1,0,0.71685399999842,1
3008,55,Larynx,Sham,Cons,Noise,45,2,1,0.7057427000254392,1
3009,55,Larynx,Sham,Cons,Noise,46,4,1,0.547556199948303,1
3010,55,Larynx,Sham,Cons,Noise,47,4,1,0.578619100037031,1
3011,55,Larynx,Sham,Cons,Noise,48,5,1,0.667144199949689,1
3012,55,Larynx,Sham,Cons,Noise,49,4,1,0.820698500028811,1
3013,55,Larynx,Sham,Cons,Noise,50,2,0,0.725479799904861,1
3014,55,Larynx,Sham,Cons,Noise,51,1,0,0.690131500014104,1
3015,55,Larynx,Sham,Cons,Noise,52,3,1,0.682829300058074,1
3016,55,Larynx,Sham,Cons,Noise,53,5,1,0.666599899996072,1
3017,55,Larynx,Sham,Cons,Noise,54,2,1,0.9784353999421,1
3018,55,Larynx,Sham,Cons,Noise,55,2,0,0.8164500000420959,1
3019,55,Larynx,Sham,Cons,Noise,56,3,1,0.719150200020522,1
3020,55,Larynx,Sham,Cons,Noise,57,5,1,0.739570299978368,1
3021,55,Larynx,Sham,Cons,Noise,58,3,0,0.678393499925733,1
3022,55,Larynx,Sham,Cons,Noise,59,3,1,0.630099799949676,1
3023,55,Larynx,Sham,Cons,Noise,60,2,1,0.771972800022922,1
3024,55,Larynx,Sham,Cons,Noise,61,3,1,0.7075641000410541,1
3025,55,Larynx,Sham,Cons,Noise,62,4,1,0.8816059000091631,1
3026,55,Larynx,Sham,Cons,Noise,63,3,0,0.6928621999686579,1
3027,55,Larynx,Sham,Cons,Noise,64,5,1,1.4291567999171102,1
3028,55,Larynx,Sham,Cons,Noise,65,3,1,0.932141899946146,1
3029,55,Larynx,Sham,Cons,Noise,66,3,0,1.12818849994801,1
3030,55,Larynx,Sham,Cons,Noise,67,4,1,1.0199495999841,1
3031,55,Larynx,Sham,Cons,Noise,68,1,0,0.8284651999128979,1
3032,55,Larynx,Sham,Cons,Noise,69,3,0,0.8511536000296469,1
3033,55,Larynx,Sham,Cons,Noise,70,5,1,0.730682100052945,1
3034,55,Larynx,Sham,Cons,Noise,71,3,1,1.19798270007595,1
3035,55,Larynx,Sham,Cons,Noise,72,4,0,2.34898810007144,1
3036,55,Larynx,Sham,Cons,Noise,73,5,1,0.680964199942537,1
3037,55,Larynx,Sham,Cons,Noise,74,2,0,0.717610500054434,1
3038,55,Larynx,Sham,Cons,Noise,75,1,0,0.5912231999682261,1
3039,55,Larynx,Sham,Cons,Noise,76,2,0,0.599850500002503,1
3040,55,Larynx,Sham,Cons,Noise,77,1,0,0.662809599889442,1
3041,55,Larynx,Sham,Cons,Noise,78,2,1,0.8253241999773309,1
3042,55,Larynx,Sham,Cons,Noise,79,5,1,0.703555700019933,1
3043,55,Larynx,Sham,Cons,Noise,80,2,0,0.5959268999285999,1
3044,55,Larynx,Sham,Cons,Noise,81,2,0,0.8908233999973159,1
3045,55,Larynx,Sham,Cons,Noise,82,2,1,1.5969076999463099,1
3046,55,Larynx,Sham,Cons,Noise,83,4,1,0.775763800018467,1
3047,55,Larynx,Sham,Cons,Noise,84,2,0,0.7285356000065799,1
3048,55,Larynx,Sham,Cons,Noise,85,2,0,2.48500959994271,1
3049,55,Larynx,Sham,Cons,Noise,86,1,0,0.766181799932383,1
3050,55,Larynx,Sham,Cons,Noise,87,5,1,0.8949987998930741,1
3051,55,Larynx,Sham,Cons,Noise,88,5,1,0.7133462999481709,1
3052,55,Larynx,Sham,Cons,Noise,89,3,0,1.07265850005206,1
3053,55,Larynx,Sham,Cons,Noise,90,3,1,0.9192121999803929,1
3054,55,Larynx,Sham,Cons,Noise,91,3,1,0.680175399989821,1
3055,55,Larynx,Sham,Cons,Noise,92,4,1,0.6647099000401789,1
3056,55,Larynx,Sham,Cons,Noise,93,4,1,0.673506099963561,1
3057,55,Larynx,Sham,Cons,Noise,94,5,1,0.660587299964391,1
3058,55,Larynx,Sham,Cons,Noise,95,4,1,0.591025899979286,1
3059,55,Larynx,Sham,Cons,Noise,96,5,1,0.7355561000294979,1
3060,55,Larynx,Sham,Cons,Noise,97,1,0,0.614329000003636,1
3061,55,Larynx,Sham,Cons,Noise,98,3,1,0.66858699999284,1
3062,55,Larynx,Sham,Cons,Noise,99,1,0,0.6719857000280172,1
3063,55,Larynx,Sham,Cons,Noise,100,3,1,1.01941840001382,1
3064,55,Larynx,Sham,Cons,Noise,101,1,0,2.55356090003625,1
3065,55,Larynx,Sham,Cons,Noise,102,4,1,0.738425999996252,1
3066,55,Larynx,Sham,Cons,Noise,103,3,0,0.7448549000546341,1
3067,55,Larynx,Sham,Cons,Noise,104,4,1,0.57066559989471,1
3068,55,Larynx,Sham,Cons,Noise,105,2,1,1.25289070000872,1
3069,55,Larynx,Sham,Cons,Noise,106,3,1,0.647669299971312,1
3070,55,Larynx,Sham,Cons,Noise,107,3,1,0.616101999999955,1
3071,55,Larynx,Sham,Cons,Noise,108,5,0,0.697021400090307,1
3072,55,Larynx,Sham,Cons,Noise,109,3,1,0.549885700107552,1
3073,55,Larynx,Sham,Cons,Noise,110,2,0,2.17760609998368,1
3074,55,Larynx,Sham,Cons,Noise,111,1,0,0.769778499961831,1
3075,55,Larynx,Sham,Cons,Noise,112,4,1,0.676096100010909,1
3076,55,Larynx,Sham,Cons,Noise,113,3,1,1.02865899994504,1
3077,55,Larynx,Sham,Cons,Noise,114,4,1,0.723657199996524,1
3078,55,Larynx,Sham,Cons,Noise,115,1,0,0.5962907000212,1
3079,55,Larynx,Sham,Cons,Noise,116,2,1,0.6238134000450369,1
3080,55,Larynx,Sham,Cons,Noise,117,3,1,0.9349468000000342,1
3081,55,Larynx,Sham,Cons,Noise,118,1,0,2.44618370011449,1
3082,55,Larynx,Sham,Cons,Noise,119,3,1,0.677113799960352,1
3083,55,Larynx,Sham,Cons,Noise,120,1,0,0.6911825001006949,1
3084,55,Larynx,Sham,Cons,Noise,121,3,1,0.577202999964356,1
3085,55,Larynx,Sham,Cons,Noise,122,2,0,0.666769899893552,1
3086,55,Larynx,Sham,Cons,Noise,123,4,1,1.42497000005096,1
3087,55,Larynx,Sham,Cons,Noise,124,4,1,0.724727199994959,1
3088,55,Larynx,Sham,Cons,Noise,125,3,1,0.645452699973248,1
3089,55,Larynx,Sham,Cons,Noise,126,3,1,1.29093769995961,1
3090,55,Larynx,Sham,Cons,Noise,127,2,1,1.46082190005109,1
3091,55,Larynx,Sham,Cons,Noise,128,4,1,0.637649500044063,1
3092,55,Larynx,Sham,Cons,Noise,129,5,1,0.603837099974044,1
3093,55,Larynx,Sham,Cons,Noise,130,2,0,0.59561289998237,1
3094,55,Larynx,Sham,Cons,Noise,131,1,0,0.6933199999621139,1
3095,55,Larynx,Sham,Cons,Noise,132,2,1,0.718388000037521,1
3096,55,Larynx,Sham,Cons,Noise,133,5,1,1.5220328000141299,1
3097,55,Larynx,Sham,Cons,Noise,134,3,1,0.9235856999875981,1
3098,55,Larynx,Sham,Cons,Noise,135,3,1,4.00040370004717,1
3099,55,Larynx,Sham,Cons,Noise,136,3,1,0.6542557999491689,1
3100,55,Larynx,Sham,Cons,Noise,137,2,1,0.596438399981707,1
3101,55,Larynx,Sham,Cons,Noise,138,3,0,0.6156042999355121,1
3102,55,Larynx,Sham,Cons,Noise,139,4,1,0.440215799957514,1
3103,55,Larynx,Sham,Cons,Noise,140,3,1,0.6647974000079561,1
3104,55,Larynx,Sham,Cons,Noise,141,4,0,0.904145500040613,1
3105,55,Larynx,Sham,Cons,Noise,142,1,1,1.8800201999256398,1
3106,55,Larynx,Sham,Cons,Noise,143,5,1,2.20679900003597,1
3107,55,Larynx,Sham,Cons,Noise,144,2,0,0.6883681999752299,1
3108,55,Larynx,Sham,Cons,Noise,145,3,1,1.21195610007271,1
3109,55,Larynx,Sham,Cons,Noise,146,4,1,0.834877700079232,1
3110,55,Larynx,Sham,Cons,Noise,147,1,0,0.5634677000343801,1
3111,55,Larynx,Sham,Cons,Noise,148,1,0,0.602815399994142,1
3112,55,Larynx,Sham,Cons,Noise,149,2,0,0.689122999901883,1
3113,55,Larynx,Sham,Cons,Noise,150,5,1,0.662343900068663,1
3114,55,Larynx,Sham,Cons,Noise,151,5,1,0.7509035000111909,1
3115,55,Larynx,Sham,Cons,Noise,152,5,1,0.5842617000453171,1
3116,55,Larynx,Sham,Cons,Noise,153,4,0,0.8468583000358191,1
3117,55,Larynx,Sham,Cons,Noise,154,3,0,0.6682752000633629,1
3118,55,Larynx,Sham,Cons,Noise,155,2,1,0.5926437999587509,1
3119,55,Larynx,Sham,Cons,Noise,156,4,1,0.897828799905255,1
4836,104,Larynx,Right iTBS,Cons,Noise,1,3,0,0.5826557000400501,1
4837,104,Larynx,Right iTBS,Cons,Noise,2,3,0,0.5482229000190271,1
4838,104,Larynx,Right iTBS,Cons,Noise,3,5,1,0.46793100005015703,1
4839,104,Larynx,Right iTBS,Cons,Noise,4,1,1,0.4013256999896839,1
4840,104,Larynx,Right iTBS,Cons,Noise,5,2,0,0.508863100083545,1
4841,104,Larynx,Right iTBS,Cons,Noise,6,3,0,0.445415199967101,1
4842,104,Larynx,Right iTBS,Cons,Noise,7,2,1,0.48369139991700605,1
4843,104,Larynx,Right iTBS,Cons,Noise,8,2,0,0.507483800058253,1
4844,104,Larynx,Right iTBS,Cons,Noise,9,5,1,0.490151299978606,1
4845,104,Larynx,Right iTBS,Cons,Noise,10,4,1,0.59872120001819,1
4846,104,Larynx,Right iTBS,Cons,Noise,11,5,0,0.46705730003304796,1
4847,104,Larynx,Right iTBS,Cons,Noise,12,1,1,0.394258700078353,1
4848,104,Larynx,Right iTBS,Cons,Noise,13,1,0,0.44991169997956604,1
4849,104,Larynx,Right iTBS,Cons,Noise,14,4,0,0.42672200000379207,1
4850,104,Larynx,Right iTBS,Cons,Noise,15,5,0,0.37940520001575395,1
4851,104,Larynx,Right iTBS,Cons,Noise,16,2,1,0.3886842000065371,1
4852,104,Larynx,Right iTBS,Cons,Noise,17,4,0,0.7069490000139921,1
4853,104,Larynx,Right iTBS,Cons,Noise,18,4,1,0.451352300005965,1
4854,104,Larynx,Right iTBS,Cons,Noise,19,3,0,0.443343400023878,1
4855,104,Larynx,Right iTBS,Cons,Noise,20,3,0,0.568559300038032,1
4856,104,Larynx,Right iTBS,Cons,Noise,21,2,1,0.632539900019765,1
4857,104,Larynx,Right iTBS,Cons,Noise,22,1,1,0.495131699950434,1
4858,104,Larynx,Right iTBS,Cons,Noise,23,4,1,0.67118439998012,1
4859,104,Larynx,Right iTBS,Cons,Noise,24,3,1,0.451061800005846,1
4860,104,Larynx,Right iTBS,Cons,Noise,25,3,0,0.35299309995025396,1
4861,104,Larynx,Right iTBS,Cons,Noise,26,3,0,0.340017599985003,1
4862,104,Larynx,Right iTBS,Cons,Noise,27,1,0,0.45329119998496004,1
4863,104,Larynx,Right iTBS,Cons,Noise,28,5,0,0.38883349997922795,1
4864,104,Larynx,Right iTBS,Cons,Noise,29,2,1,0.39602390001528004,1
4865,104,Larynx,Right iTBS,Cons,Noise,30,4,1,0.42775170004461,1
4866,104,Larynx,Right iTBS,Cons,Noise,31,2,1,0.58900130004622,1
4867,104,Larynx,Right iTBS,Cons,Noise,32,3,0,0.44962420000229003,1
4868,104,Larynx,Right iTBS,Cons,Noise,33,3,1,0.46863320004195,1
4869,104,Larynx,Right iTBS,Cons,Noise,34,2,0,0.452971799997613,1
4870,104,Larynx,Right iTBS,Cons,Noise,35,4,1,0.46534629992675,1
4871,104,Larynx,Right iTBS,Cons,Noise,36,3,0,0.48205600003711896,1
4872,104,Larynx,Right iTBS,Cons,Noise,37,5,1,0.464551700046286,1
4873,104,Larynx,Right iTBS,Cons,Noise,38,1,1,0.44434129993896904,1
4874,104,Larynx,Right iTBS,Cons,Noise,39,4,0,0.512362099951133,1
4875,104,Larynx,Right iTBS,Cons,Noise,40,5,0,0.5475461999885739,1
4876,104,Larynx,Right iTBS,Cons,Noise,41,3,1,0.535277800052427,1
4877,104,Larynx,Right iTBS,Cons,Noise,42,3,1,0.656082800007425,1
4878,104,Larynx,Right iTBS,Cons,Noise,43,4,0,0.45936340000480397,1
4879,104,Larynx,Right iTBS,Cons,Noise,44,3,1,0.45500800001900604,1
4880,104,Larynx,Right iTBS,Cons,Noise,45,4,0,0.39926570001989603,1
4881,104,Larynx,Right iTBS,Cons,Noise,46,1,0,0.608509299927391,1
4882,104,Larynx,Right iTBS,Cons,Noise,47,3,0,0.41313870006706604,1
4883,104,Larynx,Right iTBS,Cons,Noise,48,2,1,0.4278855000156911,1
4884,104,Larynx,Right iTBS,Cons,Noise,49,1,1,0.45923939999193,1
4885,104,Larynx,Right iTBS,Cons,Noise,50,4,0,0.47468550002668103,1
4886,104,Larynx,Right iTBS,Cons,Noise,51,3,1,0.525604299968109,1
4887,104,Larynx,Right iTBS,Cons,Noise,52,3,0,0.468151499982923,1
4888,104,Larynx,Right iTBS,Cons,Noise,53,1,0,0.44538169994484605,1
4889,104,Larynx,Right iTBS,Cons,Noise,54,5,0,0.45979260001331607,1
4890,104,Larynx,Right iTBS,Cons,Noise,55,2,0,0.694122600019909,1
4891,104,Larynx,Right iTBS,Cons,Noise,56,1,0,0.7349503999575971,1
4892,104,Larynx,Right iTBS,Cons,Noise,57,4,0,0.5991462999954821,1
4893,104,Larynx,Right iTBS,Cons,Noise,58,4,1,0.46215600008145,1
4894,104,Larynx,Right iTBS,Cons,Noise,59,2,1,0.43132710002828395,1
4895,104,Larynx,Right iTBS,Cons,Noise,60,2,0,0.585717900074087,1
4896,104,Larynx,Right iTBS,Cons,Noise,61,4,1,0.455480600008741,1
4897,104,Larynx,Right iTBS,Cons,Noise,62,3,0,0.5544320000335571,1
4898,104,Larynx,Right iTBS,Cons,Noise,63,2,1,0.390927699976601,1
4899,104,Larynx,Right iTBS,Cons,Noise,64,3,1,0.5492647000355649,1
4900,104,Larynx,Right iTBS,Cons,Noise,65,3,1,0.39647880010306796,1
4901,104,Larynx,Right iTBS,Cons,Noise,66,5,0,0.40470840001944497,1
4902,104,Larynx,Right iTBS,Cons,Noise,67,2,1,0.407063700025901,1
4903,104,Larynx,Right iTBS,Cons,Noise,68,2,1,0.40993460000027,1
4904,104,Larynx,Right iTBS,Cons,Noise,69,4,0,0.43436410010326704,1
4905,104,Larynx,Right iTBS,Cons,Noise,70,5,1,0.452920199953951,1
4906,104,Larynx,Right iTBS,Cons,Noise,71,1,1,0.459081799956039,1
4907,104,Larynx,Right iTBS,Cons,Noise,72,5,0,0.70704939996358,1
4908,104,Larynx,Right iTBS,Cons,Noise,73,1,0,0.74835999996867,1
4909,104,Larynx,Right iTBS,Cons,Noise,74,4,1,0.6253585999365899,1
4910,104,Larynx,Right iTBS,Cons,Noise,75,3,1,0.44378480000887105,1
4911,104,Larynx,Right iTBS,Cons,Noise,76,2,1,0.414344300050288,1
4912,104,Larynx,Right iTBS,Cons,Noise,77,3,1,0.401380200055428,1
4913,104,Larynx,Right iTBS,Cons,Noise,78,5,0,0.42584949999582,1
4914,104,Larynx,Right iTBS,Cons,Noise,79,4,0,0.3640208999859171,1
4915,104,Larynx,Right iTBS,Cons,Noise,80,5,1,0.409286699956283,1
4916,104,Larynx,Right iTBS,Cons,Noise,81,2,1,0.39201209996826897,1
4917,104,Larynx,Right iTBS,Cons,Noise,82,3,0,0.42214610008522896,1
4918,104,Larynx,Right iTBS,Cons,Noise,83,4,1,0.63196740008425,1
4919,104,Larynx,Right iTBS,Cons,Noise,84,4,1,0.38470679998863505,1
4920,104,Larynx,Right iTBS,Cons,Noise,85,2,1,0.40087799995671997,1
4921,104,Larynx,Right iTBS,Cons,Noise,86,2,0,0.441642199992202,1
4922,104,Larynx,Right iTBS,Cons,Noise,87,3,1,0.45521439996082297,1
4923,104,Larynx,Right iTBS,Cons,Noise,88,5,0,0.47204959997907303,1
4924,104,Larynx,Right iTBS,Cons,Noise,89,1,1,0.584939500084147,1
4925,104,Larynx,Right iTBS,Cons,Noise,90,4,1,0.597860199981369,1
4926,104,Larynx,Right iTBS,Cons,Noise,91,3,0,0.501929899910465,1
4927,104,Larynx,Right iTBS,Cons,Noise,92,1,0,0.4549867000896479,1
4928,104,Larynx,Right iTBS,Cons,Noise,93,3,0,0.34987349994480604,1
4929,104,Larynx,Right iTBS,Cons,Noise,94,3,0,0.41978669993113704,1
4930,104,Larynx,Right iTBS,Cons,Noise,95,1,1,0.41660560003947494,1
4931,104,Larynx,Right iTBS,Cons,Noise,96,2,1,0.38267790002282703,1
4932,104,Larynx,Right iTBS,Cons,Noise,97,5,1,0.345030599972233,1
4933,104,Larynx,Right iTBS,Cons,Noise,98,5,0,0.38446920004207596,1
4934,104,Larynx,Right iTBS,Cons,Noise,99,4,0,0.410131499986164,1
4935,104,Larynx,Right iTBS,Cons,Noise,100,3,1,0.465553799993359,1
4936,104,Larynx,Right iTBS,Cons,Noise,101,3,0,0.588958499953151,1
4937,104,Larynx,Right iTBS,Cons,Noise,102,5,0,0.6134191000601279,1
4938,104,Larynx,Right iTBS,Cons,Noise,103,4,1,0.43614639993757004,1
4939,104,Larynx,Right iTBS,Cons,Noise,104,3,1,0.431952700018883,1
4940,104,Larynx,Right iTBS,Cons,Noise,105,2,1,0.41436689998954496,1
4941,104,Larynx,Right iTBS,Cons,Noise,106,4,1,0.419647100032307,1
4942,104,Larynx,Right iTBS,Cons,Noise,107,1,0,0.39672970003448405,1
4943,104,Larynx,Right iTBS,Cons,Noise,108,1,0,0.6285809999099,1
4944,104,Larynx,Right iTBS,Cons,Noise,109,3,1,0.392849099938758,1
4945,104,Larynx,Right iTBS,Cons,Noise,110,2,0,0.42218059999868296,1
4946,104,Larynx,Right iTBS,Cons,Noise,111,1,0,0.34334249992389193,1
4947,104,Larynx,Right iTBS,Cons,Noise,112,5,0,0.42423930007498706,1
4948,104,Larynx,Right iTBS,Cons,Noise,113,2,1,0.41849109996110206,1
4949,104,Larynx,Right iTBS,Cons,Noise,114,4,1,0.494960699928924,1
4950,104,Larynx,Right iTBS,Cons,Noise,115,3,1,0.48287459998391596,1
4951,104,Larynx,Right iTBS,Cons,Noise,116,3,1,0.40369179996196203,1
4952,104,Larynx,Right iTBS,Cons,Noise,117,2,0,0.418587899999693,1
4953,104,Larynx,Right iTBS,Cons,Noise,118,1,0,0.6388423999305811,1
4954,104,Larynx,Right iTBS,Cons,Noise,119,4,1,0.372600000002421,1
4955,104,Larynx,Right iTBS,Cons,Noise,120,4,1,0.3821942000649871,1
4956,104,Larynx,Right iTBS,Cons,Noise,121,2,0,0.393500199890696,1
4957,104,Larynx,Right iTBS,Cons,Noise,122,1,0,0.39555440004915,1
4958,104,Larynx,Right iTBS,Cons,Noise,123,2,0,0.445805700030178,1
4959,104,Larynx,Right iTBS,Cons,Noise,124,5,0,0.450115400017239,1
4960,104,Larynx,Right iTBS,Cons,Noise,125,4,0,0.50597379996907,1
4961,104,Larynx,Right iTBS,Cons,Noise,126,2,1,0.607427299953997,1
4962,104,Larynx,Right iTBS,Cons,Noise,127,3,0,0.5888097999850289,1
4963,104,Larynx,Right iTBS,Cons,Noise,128,4,0,0.46483539999462703,1
4964,104,Larynx,Right iTBS,Cons,Noise,129,3,1,0.412274300004356,1
4965,104,Larynx,Right iTBS,Cons,Noise,130,1,1,0.41915860003791705,1
4966,104,Larynx,Right iTBS,Cons,Noise,131,2,0,0.524995899992064,1
4967,104,Larynx,Right iTBS,Cons,Noise,132,1,0,0.40425689995754494,1
4968,104,Larynx,Right iTBS,Cons,Noise,133,3,1,0.447580099920742,1
4969,104,Larynx,Right iTBS,Cons,Noise,134,4,1,0.559164599981159,1
4970,104,Larynx,Right iTBS,Cons,Noise,135,3,0,0.407716499990784,1
4971,104,Larynx,Right iTBS,Cons,Noise,136,3,1,0.48618060001172103,1
4972,104,Larynx,Right iTBS,Cons,Noise,137,5,0,0.513302900013514,1
4973,104,Larynx,Right iTBS,Cons,Noise,138,2,0,0.448017599992454,1
4974,104,Larynx,Right iTBS,Cons,Noise,139,3,1,0.42150379996746795,1
4975,104,Larynx,Right iTBS,Cons,Noise,140,2,0,0.5812634000321851,1
4976,104,Larynx,Right iTBS,Cons,Noise,141,5,0,0.5311881999950859,1
4977,104,Larynx,Right iTBS,Cons,Noise,142,3,1,0.39057520008646,1
4978,104,Larynx,Right iTBS,Cons,Noise,143,5,1,0.33713709993753604,1
4979,104,Larynx,Right iTBS,Cons,Noise,144,2,1,0.4004666999680921,1
4980,104,Larynx,Right iTBS,Cons,Noise,145,3,0,0.38465979998000005,1
4981,104,Larynx,Right iTBS,Cons,Noise,146,1,0,0.367100100032985,1
4982,104,Larynx,Right iTBS,Cons,Noise,147,3,0,0.37371269997675,1
4983,104,Larynx,Right iTBS,Cons,Noise,148,4,1,0.359445800073445,1
4984,104,Larynx,Right iTBS,Cons,Noise,149,4,1,0.41390769998543003,1
4985,104,Larynx,Right iTBS,Cons,Noise,150,2,1,0.6595671999966729,1
4986,104,Larynx,Right iTBS,Cons,Noise,151,5,0,0.47982100001536293,1
4987,104,Larynx,Right iTBS,Cons,Noise,152,3,1,0.397701999987476,1
4988,104,Larynx,Right iTBS,Cons,Noise,153,3,1,0.394437900045887,1
4989,104,Larynx,Right iTBS,Cons,Noise,154,5,0,0.402403700049035,1
4990,104,Larynx,Right iTBS,Cons,Noise,155,4,0,0.355821599951014,1
4991,104,Larynx,Right iTBS,Cons,Noise,156,1,1,0.44637509994208796,1
6084,104,Larynx,Sham,Cons,Noise,1,3,1,0.7045690999948421,1
6085,104,Larynx,Sham,Cons,Noise,2,4,0,0.634262199979275,1
6086,104,Larynx,Sham,Cons,Noise,3,4,0,0.5703164000296971,1
6087,104,Larynx,Sham,Cons,Noise,4,5,0,0.599460900004487,1
6088,104,Larynx,Sham,Cons,Noise,5,4,0,0.511945899983402,1
6089,104,Larynx,Sham,Cons,Noise,6,4,0,0.603185699961614,1
6090,104,Larynx,Sham,Cons,Noise,7,5,0,0.527800299983937,1
6091,104,Larynx,Sham,Cons,Noise,8,5,0,0.58426709997002,1
6092,104,Larynx,Sham,Cons,Noise,9,1,0,0.5979781000060029,1
6093,104,Larynx,Sham,Cons,Noise,10,3,1,0.534125999954995,1
6094,104,Larynx,Sham,Cons,Noise,11,5,0,0.620738499972504,1
6095,104,Larynx,Sham,Cons,Noise,12,2,1,0.6293386000324971,1
6096,104,Larynx,Sham,Cons,Noise,13,3,0,0.7168330000131391,1
6097,104,Larynx,Sham,Cons,Noise,14,1,0,0.46161960001336405,1
6098,104,Larynx,Sham,Cons,Noise,15,1,0,0.530113900022116,1
6099,104,Larynx,Sham,Cons,Noise,16,2,0,0.494081200042274,1
6100,104,Larynx,Sham,Cons,Noise,17,3,1,0.533794199989643,1
6101,104,Larynx,Sham,Cons,Noise,18,1,0,0.51757909997832,1
6102,104,Larynx,Sham,Cons,Noise,19,3,0,0.45426359999692106,1
6103,104,Larynx,Sham,Cons,Noise,20,3,0,0.44711270002881104,1
6104,104,Larynx,Sham,Cons,Noise,21,3,1,0.628207800036762,1
6105,104,Larynx,Sham,Cons,Noise,22,4,0,0.440477399970405,1
6106,104,Larynx,Sham,Cons,Noise,23,4,0,0.5962762000272049,1
6107,104,Larynx,Sham,Cons,Noise,24,5,0,0.42224909999640703,1
6108,104,Larynx,Sham,Cons,Noise,25,3,1,0.530301199993119,1
6109,104,Larynx,Sham,Cons,Noise,26,3,0,0.632508200011216,1
6110,104,Larynx,Sham,Cons,Noise,27,3,0,0.6550667000119571,1
6111,104,Larynx,Sham,Cons,Noise,28,1,0,0.45015330001479,1
6112,104,Larynx,Sham,Cons,Noise,29,4,0,0.5230055000283761,1
6113,104,Larynx,Sham,Cons,Noise,30,2,1,0.543967099976726,1
6114,104,Larynx,Sham,Cons,Noise,31,2,1,0.5515941999619829,1
6115,104,Larynx,Sham,Cons,Noise,32,3,0,0.537191899958998,1
6116,104,Larynx,Sham,Cons,Noise,33,4,1,0.501836399955209,1
6117,104,Larynx,Sham,Cons,Noise,34,5,1,0.528931399981957,1
6118,104,Larynx,Sham,Cons,Noise,35,2,1,0.44477000000188105,1
6119,104,Larynx,Sham,Cons,Noise,36,2,0,0.459890900005121,1
6120,104,Larynx,Sham,Cons,Noise,37,2,0,0.5159979000454771,1
6121,104,Larynx,Sham,Cons,Noise,38,1,1,0.553571099997498,1
6122,104,Larynx,Sham,Cons,Noise,39,2,1,0.779230100044515,1
6123,104,Larynx,Sham,Cons,Noise,40,4,0,0.5388267000089401,1
6124,104,Larynx,Sham,Cons,Noise,41,3,1,0.534894999989774,1
6125,104,Larynx,Sham,Cons,Noise,42,4,0,0.539222899999004,1
6126,104,Larynx,Sham,Cons,Noise,43,1,0,0.47255900001619006,1
6127,104,Larynx,Sham,Cons,Noise,44,1,0,0.45865779998712203,1
6128,104,Larynx,Sham,Cons,Noise,45,2,0,0.502764799981378,1
6129,104,Larynx,Sham,Cons,Noise,46,4,1,0.552478400000837,1
6130,104,Larynx,Sham,Cons,Noise,47,4,1,0.6155131999985309,1
6131,104,Larynx,Sham,Cons,Noise,48,5,0,0.527389099996071,1
6132,104,Larynx,Sham,Cons,Noise,49,4,0,0.472957799967844,1
6133,104,Larynx,Sham,Cons,Noise,50,2,0,0.483382100006565,1
6134,104,Larynx,Sham,Cons,Noise,51,1,0,0.45825669995974705,1
6135,104,Larynx,Sham,Cons,Noise,52,3,0,0.45981019997270794,1
6136,104,Larynx,Sham,Cons,Noise,53,5,1,0.534039199992549,1
6137,104,Larynx,Sham,Cons,Noise,54,2,0,0.437905700004194,1
6138,104,Larynx,Sham,Cons,Noise,55,2,1,0.42867920000571796,1
6139,104,Larynx,Sham,Cons,Noise,56,3,0,0.52454700000817,1
6140,104,Larynx,Sham,Cons,Noise,57,5,1,0.5682513000210749,1
6141,104,Larynx,Sham,Cons,Noise,58,3,0,0.47677070001373106,1
6142,104,Larynx,Sham,Cons,Noise,59,3,1,0.47844120004447205,1
6143,104,Larynx,Sham,Cons,Noise,60,2,0,0.542068700015079,1
6144,104,Larynx,Sham,Cons,Noise,61,3,0,0.44582880003145003,1
6145,104,Larynx,Sham,Cons,Noise,62,4,1,0.6243189999950121,1
6146,104,Larynx,Sham,Cons,Noise,63,3,0,0.511955499998294,1
6147,104,Larynx,Sham,Cons,Noise,64,5,0,0.429022299998906,1
6148,104,Larynx,Sham,Cons,Noise,65,3,0,0.556059200025629,1
6149,104,Larynx,Sham,Cons,Noise,66,3,1,0.5630203000037,1
6150,104,Larynx,Sham,Cons,Noise,67,4,1,0.637968500028364,1
6151,104,Larynx,Sham,Cons,Noise,68,1,0,0.457292900013272,1
6152,104,Larynx,Sham,Cons,Noise,69,3,1,0.515682599972934,1
6153,104,Larynx,Sham,Cons,Noise,70,5,0,0.42332499998156,1
6154,104,Larynx,Sham,Cons,Noise,71,3,0,0.514826600032393,1
6155,104,Larynx,Sham,Cons,Noise,72,4,0,0.5344845000072379,1
6156,104,Larynx,Sham,Cons,Noise,73,5,1,0.48898859997279903,1
6157,104,Larynx,Sham,Cons,Noise,74,2,0,0.482253200025298,1
6158,104,Larynx,Sham,Cons,Noise,75,1,0,0.591645699983928,1
6159,104,Larynx,Sham,Cons,Noise,76,2,0,0.591217699984554,1
6160,104,Larynx,Sham,Cons,Noise,77,1,1,0.561980600003153,1
6161,104,Larynx,Sham,Cons,Noise,78,2,0,0.5519636999815699,1
6162,104,Larynx,Sham,Cons,Noise,79,5,0,0.357279099989682,1
6163,104,Larynx,Sham,Cons,Noise,80,2,0,0.493081099994015,1
6164,104,Larynx,Sham,Cons,Noise,81,2,0,0.554301299969666,1
6165,104,Larynx,Sham,Cons,Noise,82,2,1,0.555633499985561,1
6166,104,Larynx,Sham,Cons,Noise,83,4,0,0.466396099945996,1
6167,104,Larynx,Sham,Cons,Noise,84,2,0,0.502558099979069,1
6168,104,Larynx,Sham,Cons,Noise,85,2,0,0.5941675000358371,1
6169,104,Larynx,Sham,Cons,Noise,86,1,0,0.601374100020621,1
6170,104,Larynx,Sham,Cons,Noise,87,5,1,0.508793399960268,1
6171,104,Larynx,Sham,Cons,Noise,88,5,0,0.457331000012346,1
6172,104,Larynx,Sham,Cons,Noise,89,3,0,0.438295900006779,1
6173,104,Larynx,Sham,Cons,Noise,90,3,1,0.47956039995187894,1
6174,104,Larynx,Sham,Cons,Noise,91,3,0,0.48083079996286,1
6175,104,Larynx,Sham,Cons,Noise,92,4,0,0.41261810000287397,1
6176,104,Larynx,Sham,Cons,Noise,93,4,0,0.429835400020238,1
6177,104,Larynx,Sham,Cons,Noise,94,5,0,0.5059906999813389,1
6178,104,Larynx,Sham,Cons,Noise,95,4,1,0.659797900007106,1
6179,104,Larynx,Sham,Cons,Noise,96,5,0,0.5132905000355089,1
6180,104,Larynx,Sham,Cons,Noise,97,1,0,0.5569985000183809,1
6181,104,Larynx,Sham,Cons,Noise,98,3,1,0.5106844999827439,1
6182,104,Larynx,Sham,Cons,Noise,99,1,0,0.5829418000066651,1
6183,104,Larynx,Sham,Cons,Noise,100,3,0,0.518174399971031,1
6184,104,Larynx,Sham,Cons,Noise,101,1,0,0.48493139998754503,1
6185,104,Larynx,Sham,Cons,Noise,102,4,0,0.479815999977291,1
6186,104,Larynx,Sham,Cons,Noise,103,3,1,0.527302199974656,1
6187,104,Larynx,Sham,Cons,Noise,104,4,0,0.530944800004363,1
6188,104,Larynx,Sham,Cons,Noise,105,2,0,0.46577080001588894,1
6189,104,Larynx,Sham,Cons,Noise,106,3,0,0.49391679995460397,1
6190,104,Larynx,Sham,Cons,Noise,107,3,1,0.624888199963607,1
6191,104,Larynx,Sham,Cons,Noise,108,5,1,0.519102799997199,1
6192,104,Larynx,Sham,Cons,Noise,109,3,0,0.5277508999570271,1
6193,104,Larynx,Sham,Cons,Noise,110,2,1,0.44157199998153396,1
6194,104,Larynx,Sham,Cons,Noise,111,1,1,0.535268299980089,1
6195,104,Larynx,Sham,Cons,Noise,112,4,1,0.550816199975088,1
6196,104,Larynx,Sham,Cons,Noise,113,3,1,0.46919809997780204,1
6197,104,Larynx,Sham,Cons,Noise,114,4,1,0.47575400001369395,1
6198,104,Larynx,Sham,Cons,Noise,115,1,0,0.599771199980751,1
6199,104,Larynx,Sham,Cons,Noise,116,2,0,0.5917376999859699,1
6200,104,Larynx,Sham,Cons,Noise,117,3,1,0.43823280005017295,1
6201,104,Larynx,Sham,Cons,Noise,118,1,0,0.544654599973001,1
6202,104,Larynx,Sham,Cons,Noise,119,3,1,0.33843790000537394,1
6203,104,Larynx,Sham,Cons,Noise,120,1,0,0.546127800014801,1
6204,104,Larynx,Sham,Cons,Noise,121,3,1,0.42572310002287894,1
6205,104,Larynx,Sham,Cons,Noise,122,2,0,0.514027600002009,1
6206,104,Larynx,Sham,Cons,Noise,123,4,1,0.501942200004123,1
6207,104,Larynx,Sham,Cons,Noise,124,4,1,0.49466529994970204,1
6208,104,Larynx,Sham,Cons,Noise,125,3,1,0.413927000015974,1
6209,104,Larynx,Sham,Cons,Noise,126,3,0,0.481450100021902,1
6210,104,Larynx,Sham,Cons,Noise,127,2,1,0.46849230001680603,1
6211,104,Larynx,Sham,Cons,Noise,128,4,0,0.6142665999941529,1
6212,104,Larynx,Sham,Cons,Noise,129,5,1,0.489970700000413,1
6213,104,Larynx,Sham,Cons,Noise,130,2,0,0.5460037000011649,1
6214,104,Larynx,Sham,Cons,Noise,131,1,0,0.586930599994957,1
6215,104,Larynx,Sham,Cons,Noise,132,2,1,0.505853400041815,1
6216,104,Larynx,Sham,Cons,Noise,133,5,0,0.589659099990968,1
6217,104,Larynx,Sham,Cons,Noise,134,3,0,0.5287172999815081,1
6218,104,Larynx,Sham,Cons,Noise,135,3,0,0.656450099952053,1
6219,104,Larynx,Sham,Cons,Noise,136,3,1,0.47566120000556106,1
6220,104,Larynx,Sham,Cons,Noise,137,2,0,0.606983600009698,1
6221,104,Larynx,Sham,Cons,Noise,138,3,0,0.506654200027697,1
6222,104,Larynx,Sham,Cons,Noise,139,4,1,0.5446915000211451,1
6223,104,Larynx,Sham,Cons,Noise,140,3,0,0.48069389996817297,1
6224,104,Larynx,Sham,Cons,Noise,141,4,1,0.574376399978064,1
6225,104,Larynx,Sham,Cons,Noise,142,1,0,0.5443946999730539,1
6226,104,Larynx,Sham,Cons,Noise,143,5,0,0.484956400003284,1
6227,104,Larynx,Sham,Cons,Noise,144,2,0,0.49901450000470504,1
6228,104,Larynx,Sham,Cons,Noise,145,3,0,0.62965230003465,1
6229,104,Larynx,Sham,Cons,Noise,146,4,1,0.6098899000207889,1
6230,104,Larynx,Sham,Cons,Noise,147,1,0,0.546970000024885,1
6231,104,Larynx,Sham,Cons,Noise,148,1,0,0.53007479995722,1
6232,104,Larynx,Sham,Cons,Noise,149,2,0,0.583951300010085,1
6233,104,Larynx,Sham,Cons,Noise,150,5,1,0.519449100014754,1
6234,104,Larynx,Sham,Cons,Noise,151,5,1,0.5844054999761279,1
6235,104,Larynx,Sham,Cons,Noise,152,5,1,0.464420700038318,1
6236,104,Larynx,Sham,Cons,Noise,153,4,0,0.7181364999851211,1
6237,104,Larynx,Sham,Cons,Noise,154,3,1,0.530419800023083,1
6238,104,Larynx,Sham,Cons,Noise,155,2,1,0.447187699959613,1
6239,104,Larynx,Sham,Cons,Noise,156,4,0,0.503069400030654,1
7956,123,Larynx,Right iTBS,Cons,Noise,1,2,0,0.656706799985841,1
7957,123,Larynx,Right iTBS,Cons,Noise,2,5,1,0.448191799921915,1
7958,123,Larynx,Right iTBS,Cons,Noise,3,3,1,0.31889809994027,1
7959,123,Larynx,Right iTBS,Cons,Noise,4,1,1,0.3495500999270011,1
7960,123,Larynx,Right iTBS,Cons,Noise,5,3,1,0.36307349998969607,1
7961,123,Larynx,Right iTBS,Cons,Noise,6,4,1,0.37827260000631197,1
7962,123,Larynx,Right iTBS,Cons,Noise,7,3,1,0.389766399981454,1
7963,123,Larynx,Right iTBS,Cons,Noise,8,5,1,0.367321999976411,1
7964,123,Larynx,Right iTBS,Cons,Noise,9,3,1,0.395414799917489,1
7965,123,Larynx,Right iTBS,Cons,Noise,10,4,1,0.337745400029235,1
7966,123,Larynx,Right iTBS,Cons,Noise,11,4,1,0.415960300015286,1
7967,123,Larynx,Right iTBS,Cons,Noise,12,4,1,0.50008019991219,1
7968,123,Larynx,Right iTBS,Cons,Noise,13,2,1,0.424134299973957,1
7969,123,Larynx,Right iTBS,Cons,Noise,14,2,1,0.5822733999229971,1
7970,123,Larynx,Right iTBS,Cons,Noise,15,3,1,0.582502099918202,1
7971,123,Larynx,Right iTBS,Cons,Noise,16,5,1,0.564293000032194,1
7972,123,Larynx,Right iTBS,Cons,Noise,17,1,0,0.700046900077723,1
7973,123,Larynx,Right iTBS,Cons,Noise,18,3,1,0.466757600079291,1
7974,123,Larynx,Right iTBS,Cons,Noise,19,4,1,0.382252400042489,1
7975,123,Larynx,Right iTBS,Cons,Noise,20,4,1,0.366844499949366,1
7976,123,Larynx,Right iTBS,Cons,Noise,21,1,1,0.33685679989866896,1
7977,123,Larynx,Right iTBS,Cons,Noise,22,3,1,0.49558680003974603,1
7978,123,Larynx,Right iTBS,Cons,Noise,23,3,1,0.403749200049788,1
7979,123,Larynx,Right iTBS,Cons,Noise,24,2,1,0.36644209991209203,1
7980,123,Larynx,Right iTBS,Cons,Noise,25,3,1,0.367401499999687,1
7981,123,Larynx,Right iTBS,Cons,Noise,26,2,0,0.685298900003545,1
7982,123,Larynx,Right iTBS,Cons,Noise,27,3,1,0.36742889997549394,1
7983,123,Larynx,Right iTBS,Cons,Noise,28,1,1,0.36534630006644897,1
7984,123,Larynx,Right iTBS,Cons,Noise,29,3,1,0.475591499940492,1
7985,123,Larynx,Right iTBS,Cons,Noise,30,1,0,0.660313199972734,1
7986,123,Larynx,Right iTBS,Cons,Noise,31,4,1,0.511397399939597,1
7987,123,Larynx,Right iTBS,Cons,Noise,32,5,1,0.41567300003953295,1
7988,123,Larynx,Right iTBS,Cons,Noise,33,2,1,0.38795410003513103,1
7989,123,Larynx,Right iTBS,Cons,Noise,34,2,1,0.35785819997545293,1
7990,123,Larynx,Right iTBS,Cons,Noise,35,4,1,0.437235299963504,1
7991,123,Larynx,Right iTBS,Cons,Noise,36,5,1,0.42480919999070504,1
7992,123,Larynx,Right iTBS,Cons,Noise,37,1,1,0.39395079994574206,1
7993,123,Larynx,Right iTBS,Cons,Noise,38,2,1,0.8619160999078299,1
7994,123,Larynx,Right iTBS,Cons,Noise,39,5,1,0.5954620999982579,1
7995,123,Larynx,Right iTBS,Cons,Noise,40,3,1,0.572633099975064,1
7996,123,Larynx,Right iTBS,Cons,Noise,41,1,0,0.852509099990129,1
7997,123,Larynx,Right iTBS,Cons,Noise,42,4,1,0.5748776000691579,1
7998,123,Larynx,Right iTBS,Cons,Noise,43,5,1,0.438787700026296,1
7999,123,Larynx,Right iTBS,Cons,Noise,44,4,1,0.568941699923016,1
8000,123,Larynx,Right iTBS,Cons,Noise,45,2,1,0.525736299925484,1
8001,123,Larynx,Right iTBS,Cons,Noise,46,2,1,0.461037400062196,1
8002,123,Larynx,Right iTBS,Cons,Noise,47,3,1,0.4178700000047679,1
8003,123,Larynx,Right iTBS,Cons,Noise,48,3,1,0.415265900082886,1
8004,123,Larynx,Right iTBS,Cons,Noise,49,5,1,0.37616739992518,1
8005,123,Larynx,Right iTBS,Cons,Noise,50,3,1,0.48897599999327207,1
8006,123,Larynx,Right iTBS,Cons,Noise,51,2,1,0.374388700001873,1
8007,123,Larynx,Right iTBS,Cons,Noise,52,3,1,0.45546290010679497,1
8008,123,Larynx,Right iTBS,Cons,Noise,53,2,1,0.378763600019738,1
8009,123,Larynx,Right iTBS,Cons,Noise,54,4,1,0.389248499996029,1
8010,123,Larynx,Right iTBS,Cons,Noise,55,2,1,0.4625832000747321,1
8011,123,Larynx,Right iTBS,Cons,Noise,56,5,1,0.606685100006871,1
8012,123,Larynx,Right iTBS,Cons,Noise,57,3,1,0.5496981999604029,1
8013,123,Larynx,Right iTBS,Cons,Noise,58,1,0,0.504427599953488,1
8014,123,Larynx,Right iTBS,Cons,Noise,59,3,1,0.51048970001284,1
8015,123,Larynx,Right iTBS,Cons,Noise,60,3,1,0.49045969999861,1
8016,123,Larynx,Right iTBS,Cons,Noise,61,4,1,0.685391600010917,1
8017,123,Larynx,Right iTBS,Cons,Noise,62,1,0,0.606326100067236,1
8018,123,Larynx,Right iTBS,Cons,Noise,63,1,0,0.722942100022919,1
8019,123,Larynx,Right iTBS,Cons,Noise,64,1,0,0.657491100020707,1
8020,123,Larynx,Right iTBS,Cons,Noise,65,1,0,0.643192999996245,1
8021,123,Larynx,Right iTBS,Cons,Noise,66,5,1,0.47915729996748296,1
8022,123,Larynx,Right iTBS,Cons,Noise,67,3,1,0.37797309993766204,1
8023,123,Larynx,Right iTBS,Cons,Noise,68,4,1,0.37739819998387203,1
8024,123,Larynx,Right iTBS,Cons,Noise,69,3,1,0.353478700038977,1
8025,123,Larynx,Right iTBS,Cons,Noise,70,5,1,0.375628800014965,1
8026,123,Larynx,Right iTBS,Cons,Noise,71,2,1,0.30770230002235605,1
8027,123,Larynx,Right iTBS,Cons,Noise,72,4,1,0.35659760003909496,1
8028,123,Larynx,Right iTBS,Cons,Noise,73,4,1,0.37508359993808,1
8029,123,Larynx,Right iTBS,Cons,Noise,74,5,1,0.38180189998820396,1
8030,123,Larynx,Right iTBS,Cons,Noise,75,2,1,0.483995400019921,1
8031,123,Larynx,Right iTBS,Cons,Noise,76,4,1,0.4470428999047729,1
8032,123,Larynx,Right iTBS,Cons,Noise,77,3,1,0.711804400081746,1
8033,123,Larynx,Right iTBS,Cons,Noise,78,2,1,0.549729100079276,1
8034,123,Larynx,Right iTBS,Cons,Noise,79,3,0,0.8423686999594789,1
8035,123,Larynx,Right iTBS,Cons,Noise,80,2,1,0.347845400101505,1
8036,123,Larynx,Right iTBS,Cons,Noise,81,4,1,0.4357651000609621,1
8037,123,Larynx,Right iTBS,Cons,Noise,82,5,1,0.460394599940628,1
8038,123,Larynx,Right iTBS,Cons,Noise,83,4,1,0.40928320004604796,1
8039,123,Larynx,Right iTBS,Cons,Noise,84,3,1,0.36114619998261294,1
8040,123,Larynx,Right iTBS,Cons,Noise,85,1,1,0.349588299985044,1
8041,123,Larynx,Right iTBS,Cons,Noise,86,4,1,0.501263799960725,1
8042,123,Larynx,Right iTBS,Cons,Noise,87,3,1,0.442651199991815,1
8043,123,Larynx,Right iTBS,Cons,Noise,88,3,1,0.520668299985118,1
8044,123,Larynx,Right iTBS,Cons,Noise,89,5,1,0.49340009992010897,1
8045,123,Larynx,Right iTBS,Cons,Noise,90,2,1,0.511317200027406,1
8046,123,Larynx,Right iTBS,Cons,Noise,91,5,1,0.6105183999752629,1
8047,123,Larynx,Right iTBS,Cons,Noise,92,4,1,0.774896099930629,1
8048,123,Larynx,Right iTBS,Cons,Noise,93,1,0,0.6746517999563371,1
8049,123,Larynx,Right iTBS,Cons,Noise,94,3,1,0.517723500030115,1
8050,123,Larynx,Right iTBS,Cons,Noise,95,5,1,0.32440099993255,1
8051,123,Larynx,Right iTBS,Cons,Noise,96,5,1,0.613436100073159,1
8052,123,Larynx,Right iTBS,Cons,Noise,97,1,0,0.6940018000314011,1
8053,123,Larynx,Right iTBS,Cons,Noise,98,3,1,0.38676739996299103,1
8054,123,Larynx,Right iTBS,Cons,Noise,99,1,1,0.44514450000133393,1
8055,123,Larynx,Right iTBS,Cons,Noise,100,2,1,0.6085697000380611,1
8056,123,Larynx,Right iTBS,Cons,Noise,101,2,1,0.631222299998626,1
8057,123,Larynx,Right iTBS,Cons,Noise,102,4,1,1.1538767999736599,1
8058,123,Larynx,Right iTBS,Cons,Noise,103,4,1,0.5979488999582829,1
8059,123,Larynx,Right iTBS,Cons,Noise,104,3,1,0.695365499937907,1
8060,123,Larynx,Right iTBS,Cons,Noise,105,2,1,0.591260700020939,1
8061,123,Larynx,Right iTBS,Cons,Noise,106,3,0,0.603122600005008,1
8062,123,Larynx,Right iTBS,Cons,Noise,107,5,1,0.394047900103033,1
8063,123,Larynx,Right iTBS,Cons,Noise,108,2,1,0.44003340008202896,1
8064,123,Larynx,Right iTBS,Cons,Noise,109,4,1,0.46980670001357794,1
8065,123,Larynx,Right iTBS,Cons,Noise,110,1,0,0.7240667999722059,1
8066,123,Larynx,Right iTBS,Cons,Noise,111,3,1,0.542423799983226,1
8067,123,Larynx,Right iTBS,Cons,Noise,112,4,1,0.3856696001021189,1
8068,123,Larynx,Right iTBS,Cons,Noise,113,2,1,0.379321499960497,1
8069,123,Larynx,Right iTBS,Cons,Noise,114,2,1,0.46929519996047,1
8070,123,Larynx,Right iTBS,Cons,Noise,115,3,1,0.58790369995404,1
8071,123,Larynx,Right iTBS,Cons,Noise,116,1,1,0.6323572999099271,1
8072,123,Larynx,Right iTBS,Cons,Noise,117,3,1,0.578674400108866,1
8073,123,Larynx,Right iTBS,Cons,Noise,118,1,0,0.47573080006986895,1
8074,123,Larynx,Right iTBS,Cons,Noise,119,1,0,0.680124299949966,1
8075,123,Larynx,Right iTBS,Cons,Noise,120,3,1,0.439384100027382,1
8076,123,Larynx,Right iTBS,Cons,Noise,121,3,1,0.406766299973242,1
8077,123,Larynx,Right iTBS,Cons,Noise,122,4,1,0.44795880001038296,1
8078,123,Larynx,Right iTBS,Cons,Noise,123,4,1,0.415089200017974,1
8079,123,Larynx,Right iTBS,Cons,Noise,124,3,1,0.49443869991228,1
8080,123,Larynx,Right iTBS,Cons,Noise,125,1,0,0.606487600016408,1
8081,123,Larynx,Right iTBS,Cons,Noise,126,5,1,0.473776699975133,1
8082,123,Larynx,Right iTBS,Cons,Noise,127,4,1,0.45137219992466293,1
8083,123,Larynx,Right iTBS,Cons,Noise,128,4,1,0.454659300041385,1
8084,123,Larynx,Right iTBS,Cons,Noise,129,5,1,0.5351748000830411,1
8085,123,Larynx,Right iTBS,Cons,Noise,130,3,1,0.572267899988219,1
8086,123,Larynx,Right iTBS,Cons,Noise,131,4,0,0.9304983000038191,1
8087,123,Larynx,Right iTBS,Cons,Noise,132,4,1,0.46674399997573296,1
8088,123,Larynx,Right iTBS,Cons,Noise,133,4,1,0.606527299969457,1
8089,123,Larynx,Right iTBS,Cons,Noise,134,1,0,0.6915914999553929,1
8090,123,Larynx,Right iTBS,Cons,Noise,135,5,1,0.443219300010242,1
8091,123,Larynx,Right iTBS,Cons,Noise,136,3,1,0.347834800020792,1
8092,123,Larynx,Right iTBS,Cons,Noise,137,2,1,0.392193599953316,1
8093,123,Larynx,Right iTBS,Cons,Noise,138,1,1,0.612035600002855,1
8094,123,Larynx,Right iTBS,Cons,Noise,139,3,1,0.45145319995936,1
8095,123,Larynx,Right iTBS,Cons,Noise,140,1,0,0.7592837000265721,1
8096,123,Larynx,Right iTBS,Cons,Noise,141,2,1,0.549746499978937,1
8097,123,Larynx,Right iTBS,Cons,Noise,142,5,1,0.492482100031339,1
8098,123,Larynx,Right iTBS,Cons,Noise,143,3,1,0.8838112999219448,1
8099,123,Larynx,Right iTBS,Cons,Noise,144,5,1,0.8054906999459491,1
8100,123,Larynx,Right iTBS,Cons,Noise,145,3,0,1.1423622999573102,1
8101,123,Larynx,Right iTBS,Cons,Noise,146,3,1,0.732064099982381,1
8102,123,Larynx,Right iTBS,Cons,Noise,147,3,0,0.811111900024116,1
8103,123,Larynx,Right iTBS,Cons,Noise,148,4,1,0.705209100036882,1
8104,123,Larynx,Right iTBS,Cons,Noise,149,2,0,0.7434391001006592,1
8105,123,Larynx,Right iTBS,Cons,Noise,150,2,0,0.7106290999799971,1
8106,123,Larynx,Right iTBS,Cons,Noise,151,5,1,0.35120909998659,1
8107,123,Larynx,Right iTBS,Cons,Noise,152,2,1,0.351438600104302,1
8108,123,Larynx,Right iTBS,Cons,Noise,153,2,1,0.35092439991422,1
8109,123,Larynx,Right iTBS,Cons,Noise,154,2,1,0.4165308000519871,1
8110,123,Larynx,Right iTBS,Cons,Noise,155,2,1,0.478570500039496,1
8111,123,Larynx,Right iTBS,Cons,Noise,156,3,1,0.49765780009329297,1
9204,123,Larynx,Sham,Cons,Noise,1,3,0,0.5749145000008871,1
9205,123,Larynx,Sham,Cons,Noise,2,3,1,0.49060799996368604,1
9206,123,Larynx,Sham,Cons,Noise,3,5,1,0.40578799997456394,1
9207,123,Larynx,Sham,Cons,Noise,4,1,1,0.34813419997226397,1
9208,123,Larynx,Sham,Cons,Noise,5,2,0,0.601764099905267,1
9209,123,Larynx,Sham,Cons,Noise,6,3,1,0.418503599939868,1
9210,123,Larynx,Sham,Cons,Noise,7,2,1,0.4330277999397371,1
9211,123,Larynx,Sham,Cons,Noise,8,2,1,0.5405459000030529,1
9212,123,Larynx,Sham,Cons,Noise,9,5,1,0.407439499977045,1
9213,123,Larynx,Sham,Cons,Noise,10,4,1,0.37019479996524796,1
9214,123,Larynx,Sham,Cons,Noise,11,5,1,0.404152599978261,1
9215,123,Larynx,Sham,Cons,Noise,12,1,1,0.36043389991391495,1
9216,123,Larynx,Sham,Cons,Noise,13,1,0,0.667414100025781,1
9217,123,Larynx,Sham,Cons,Noise,14,4,1,0.619005399988964,1
9218,123,Larynx,Sham,Cons,Noise,15,5,1,0.420127099961974,1
9219,123,Larynx,Sham,Cons,Noise,16,2,1,0.370456299977377,1
9220,123,Larynx,Sham,Cons,Noise,17,4,1,0.535850599990226,1
9221,123,Larynx,Sham,Cons,Noise,18,4,1,0.454573300085031,1
9222,123,Larynx,Sham,Cons,Noise,19,3,1,0.403668099897914,1
9223,123,Larynx,Sham,Cons,Noise,20,3,1,0.41921209997963205,1
9224,123,Larynx,Sham,Cons,Noise,21,2,1,0.43193349998909997,1
9225,123,Larynx,Sham,Cons,Noise,22,1,1,0.596568400040269,1
9226,123,Larynx,Sham,Cons,Noise,23,4,1,0.6597997999051589,1
9227,123,Larynx,Sham,Cons,Noise,24,3,1,0.39706230000592796,1
9228,123,Larynx,Sham,Cons,Noise,25,3,1,0.44377820007503005,1
9229,123,Larynx,Sham,Cons,Noise,26,3,1,0.46475769998505706,1
9230,123,Larynx,Sham,Cons,Noise,27,1,1,0.537170900031924,1
9231,123,Larynx,Sham,Cons,Noise,28,5,1,0.758179800002836,1
9232,123,Larynx,Sham,Cons,Noise,29,2,1,0.916667100042105,1
9233,123,Larynx,Sham,Cons,Noise,30,4,1,0.45220599998719996,1
9234,123,Larynx,Sham,Cons,Noise,31,2,1,0.594741299981251,1
9235,123,Larynx,Sham,Cons,Noise,32,3,1,0.58275040006265,1
9236,123,Larynx,Sham,Cons,Noise,33,3,1,0.7752295000245791,1
9237,123,Larynx,Sham,Cons,Noise,34,2,1,0.8996630000183359,1
9238,123,Larynx,Sham,Cons,Noise,35,4,1,0.76977190002799,1
9239,123,Larynx,Sham,Cons,Noise,36,3,1,0.6667490999680009,1
9240,123,Larynx,Sham,Cons,Noise,37,5,1,0.692242500022985,1
9241,123,Larynx,Sham,Cons,Noise,38,1,0,0.5506134999450301,1
9242,123,Larynx,Sham,Cons,Noise,39,4,1,0.5951401999918741,1
9243,123,Larynx,Sham,Cons,Noise,40,5,1,0.49536900001112394,1
9244,123,Larynx,Sham,Cons,Noise,41,3,1,0.37453490006737394,1
9245,123,Larynx,Sham,Cons,Noise,42,3,1,0.366795699927025,1
9246,123,Larynx,Sham,Cons,Noise,43,4,1,0.407638200093061,1
9247,123,Larynx,Sham,Cons,Noise,44,3,1,0.617710399907082,1
9248,123,Larynx,Sham,Cons,Noise,45,4,1,0.48978259996511,1
9249,123,Larynx,Sham,Cons,Noise,46,1,0,0.5927206000778821,1
9250,123,Larynx,Sham,Cons,Noise,47,3,1,0.503121200017631,1
9251,123,Larynx,Sham,Cons,Noise,48,2,1,0.333237200044096,1
9252,123,Larynx,Sham,Cons,Noise,49,1,1,0.421525200014003,1
9253,123,Larynx,Sham,Cons,Noise,50,4,1,0.528901700046845,1
9254,123,Larynx,Sham,Cons,Noise,51,3,1,0.43242960004135994,1
9255,123,Larynx,Sham,Cons,Noise,52,3,1,0.506872299942188,1
9256,123,Larynx,Sham,Cons,Noise,53,1,1,0.5613494999706751,1
9257,123,Larynx,Sham,Cons,Noise,54,5,1,0.743958299979568,1
9258,123,Larynx,Sham,Cons,Noise,55,2,0,0.6965740000596271,1
9259,123,Larynx,Sham,Cons,Noise,56,1,1,0.42717259994242296,1
9260,123,Larynx,Sham,Cons,Noise,57,4,1,0.447671299916692,1
9261,123,Larynx,Sham,Cons,Noise,58,4,1,0.5665579999331379,1
9262,123,Larynx,Sham,Cons,Noise,59,2,1,0.65519730001688,1
9263,123,Larynx,Sham,Cons,Noise,60,2,0,0.6788152999943121,1
9264,123,Larynx,Sham,Cons,Noise,61,4,1,0.44010530004743503,1
9265,123,Larynx,Sham,Cons,Noise,62,3,1,0.3545453000115229,1
9266,123,Larynx,Sham,Cons,Noise,63,2,1,0.34657759999390697,1
9267,123,Larynx,Sham,Cons,Noise,64,3,1,0.602922599995509,1
9268,123,Larynx,Sham,Cons,Noise,65,3,1,0.705033999984153,1
9269,123,Larynx,Sham,Cons,Noise,66,5,1,1.16979100008029,1
9270,123,Larynx,Sham,Cons,Noise,67,2,0,0.745809500105679,1
9271,123,Larynx,Sham,Cons,Noise,68,2,1,0.5309423999860879,1
9272,123,Larynx,Sham,Cons,Noise,69,4,1,0.474007199984044,1
9273,123,Larynx,Sham,Cons,Noise,70,5,1,0.38277849997393804,1
9274,123,Larynx,Sham,Cons,Noise,71,1,1,0.4523830000543971,1
9275,123,Larynx,Sham,Cons,Noise,72,5,1,0.49115889996755896,1
9276,123,Larynx,Sham,Cons,Noise,73,1,0,0.859930200036615,1
9277,123,Larynx,Sham,Cons,Noise,74,4,1,0.436431699898094,1
9278,123,Larynx,Sham,Cons,Noise,75,3,1,0.40455670002847904,1
9279,123,Larynx,Sham,Cons,Noise,76,2,1,0.302622899995185,1
9280,123,Larynx,Sham,Cons,Noise,77,3,1,0.35417389997746795,1
9281,123,Larynx,Sham,Cons,Noise,78,5,1,0.325272400048561,1
9282,123,Larynx,Sham,Cons,Noise,79,4,1,0.3629865000257271,1
9283,123,Larynx,Sham,Cons,Noise,80,5,1,0.442367800045758,1
9284,123,Larynx,Sham,Cons,Noise,81,2,1,0.441872800001875,1
9285,123,Larynx,Sham,Cons,Noise,82,3,1,0.39453689998481395,1
9286,123,Larynx,Sham,Cons,Noise,83,4,1,0.505915399990045,1
9287,123,Larynx,Sham,Cons,Noise,84,4,1,0.48277600004803395,1
9288,123,Larynx,Sham,Cons,Noise,85,2,0,0.582257900037803,1
9289,123,Larynx,Sham,Cons,Noise,86,2,1,0.35027609998360304,1
9290,123,Larynx,Sham,Cons,Noise,87,3,1,0.60943060007412,1
9291,123,Larynx,Sham,Cons,Noise,88,5,1,0.60268570005428,1
9292,123,Larynx,Sham,Cons,Noise,89,1,0,0.6347506999736651,1
9293,123,Larynx,Sham,Cons,Noise,90,4,1,0.43190590001177004,1
9294,123,Larynx,Sham,Cons,Noise,91,3,1,0.414652499952354,1
9295,123,Larynx,Sham,Cons,Noise,92,1,1,0.602143600001,1
9296,123,Larynx,Sham,Cons,Noise,93,3,1,0.7869265000335871,1
9297,123,Larynx,Sham,Cons,Noise,94,3,1,0.845431299996562,1
9298,123,Larynx,Sham,Cons,Noise,95,1,0,0.743202099925838,1
9299,123,Larynx,Sham,Cons,Noise,96,2,1,0.531340999994427,1
9300,123,Larynx,Sham,Cons,Noise,97,5,1,0.48204110004007794,1
9301,123,Larynx,Sham,Cons,Noise,98,5,1,0.523449799977243,1
9302,123,Larynx,Sham,Cons,Noise,99,4,1,0.73110530001577,1
9303,123,Larynx,Sham,Cons,Noise,100,3,1,0.6646408999804411,1
9304,123,Larynx,Sham,Cons,Noise,101,3,1,0.7229957999661559,1
9305,123,Larynx,Sham,Cons,Noise,102,5,1,1.01946599991061,1
9306,123,Larynx,Sham,Cons,Noise,103,4,1,0.8576716999523342,1
9307,123,Larynx,Sham,Cons,Noise,104,3,1,0.7994716999819499,1
9308,123,Larynx,Sham,Cons,Noise,105,2,1,0.725248400005512,1
9309,123,Larynx,Sham,Cons,Noise,106,4,1,0.6734744999557729,1
9310,123,Larynx,Sham,Cons,Noise,107,1,0,0.662942499970086,1
9311,123,Larynx,Sham,Cons,Noise,108,1,0,0.754995199968107,1
9312,123,Larynx,Sham,Cons,Noise,109,3,1,0.42561040003784,1
9313,123,Larynx,Sham,Cons,Noise,110,2,1,0.9828794000204649,1
9314,123,Larynx,Sham,Cons,Noise,111,1,0,0.863552399910986,1
9315,123,Larynx,Sham,Cons,Noise,112,5,1,0.471702999901026,1
9316,123,Larynx,Sham,Cons,Noise,113,2,1,1.12964820000343,1
9317,123,Larynx,Sham,Cons,Noise,114,4,1,0.761612999951467,1
9318,123,Larynx,Sham,Cons,Noise,115,3,1,0.684766099904664,1
9319,123,Larynx,Sham,Cons,Noise,116,3,1,0.765870500006713,1
9320,123,Larynx,Sham,Cons,Noise,117,2,1,0.686005499912426,1
9321,123,Larynx,Sham,Cons,Noise,118,1,1,1.01722769998014,1
9322,123,Larynx,Sham,Cons,Noise,119,4,1,0.7502017000224441,1
9323,123,Larynx,Sham,Cons,Noise,120,4,1,0.738790499977767,1
9324,123,Larynx,Sham,Cons,Noise,121,2,0,0.633908199961297,1
9325,123,Larynx,Sham,Cons,Noise,122,1,0,0.8302498999983071,1
9326,123,Larynx,Sham,Cons,Noise,123,2,1,0.8122601000359281,1
9327,123,Larynx,Sham,Cons,Noise,124,5,1,0.613886300008744,1
9328,123,Larynx,Sham,Cons,Noise,125,4,1,0.710129700019024,1
9329,123,Larynx,Sham,Cons,Noise,126,2,1,0.738180299988016,1
9330,123,Larynx,Sham,Cons,Noise,127,3,1,0.9897296000272041,1
9331,123,Larynx,Sham,Cons,Noise,128,4,1,0.7469550999812778,1
9332,123,Larynx,Sham,Cons,Noise,129,3,1,0.8822946000145749,1
9333,123,Larynx,Sham,Cons,Noise,130,1,0,0.707439600024372,1
9334,123,Larynx,Sham,Cons,Noise,131,2,1,0.45382350008003397,1
9335,123,Larynx,Sham,Cons,Noise,132,1,1,0.542207199963741,1
9336,123,Larynx,Sham,Cons,Noise,133,3,1,0.5283772000111641,1
9337,123,Larynx,Sham,Cons,Noise,134,4,1,0.568700499949045,1
9338,123,Larynx,Sham,Cons,Noise,135,3,1,0.479161600000225,1
9339,123,Larynx,Sham,Cons,Noise,136,3,1,0.40305359999183604,1
9340,123,Larynx,Sham,Cons,Noise,137,5,1,0.444507699925452,1
9341,123,Larynx,Sham,Cons,Noise,138,2,1,0.430329800001346,1
9342,123,Larynx,Sham,Cons,Noise,139,3,1,0.431562299956568,1
9343,123,Larynx,Sham,Cons,Noise,140,2,1,0.843681700062007,1
9344,123,Larynx,Sham,Cons,Noise,141,5,1,0.604062300059013,1
9345,123,Larynx,Sham,Cons,Noise,142,3,1,0.533647200092673,1
9346,123,Larynx,Sham,Cons,Noise,143,5,1,0.5808708999538791,1
9347,123,Larynx,Sham,Cons,Noise,144,2,1,0.436040200060233,1
9348,123,Larynx,Sham,Cons,Noise,145,3,1,0.43194039992522404,1
9349,123,Larynx,Sham,Cons,Noise,146,1,0,0.630688500008546,1
9350,123,Larynx,Sham,Cons,Noise,147,3,1,0.442166600027122,1
9351,123,Larynx,Sham,Cons,Noise,148,4,1,0.33420449995901397,1
9352,123,Larynx,Sham,Cons,Noise,149,4,1,0.318872899981216,1
9353,123,Larynx,Sham,Cons,Noise,150,2,1,0.346221600077115,1
9354,123,Larynx,Sham,Cons,Noise,151,5,1,0.38558659993577704,1
9355,123,Larynx,Sham,Cons,Noise,152,3,1,0.399228999973275,1
9356,123,Larynx,Sham,Cons,Noise,153,3,1,0.523329699994065,1
9357,123,Larynx,Sham,Cons,Noise,154,5,1,0.6799737999681379,1
9358,123,Larynx,Sham,Cons,Noise,155,4,1,0.44460540008731203,1
9359,123,Larynx,Sham,Cons,Noise,156,1,1,0.45483300008345395,1
11076,139,Larynx,Right iTBS,Cons,Noise,1,3,1,0.964350700029172,1
11077,139,Larynx,Right iTBS,Cons,Noise,2,4,0,1.0434191999956999,1
11078,139,Larynx,Right iTBS,Cons,Noise,3,4,0,0.8957649000221859,1
11079,139,Larynx,Right iTBS,Cons,Noise,4,5,1,0.7643047999590641,1
11080,139,Larynx,Right iTBS,Cons,Noise,5,4,0,0.661643999977969,1
11081,139,Larynx,Right iTBS,Cons,Noise,6,4,1,0.803673699963838,1
11082,139,Larynx,Right iTBS,Cons,Noise,7,5,1,1.27527960005682,1
11083,139,Larynx,Right iTBS,Cons,Noise,8,5,0,0.7527499999850992,1
11084,139,Larynx,Right iTBS,Cons,Noise,9,1,0,1.15945029992145,1
11085,139,Larynx,Right iTBS,Cons,Noise,10,3,1,0.7414247000124309,1
11086,139,Larynx,Right iTBS,Cons,Noise,11,5,1,0.6660081000300121,1
11087,139,Larynx,Right iTBS,Cons,Noise,12,2,0,0.542617500061169,1
11088,139,Larynx,Right iTBS,Cons,Noise,13,3,1,0.5861850000219421,1
11089,139,Larynx,Right iTBS,Cons,Noise,14,1,0,0.7901514000259341,1
11090,139,Larynx,Right iTBS,Cons,Noise,15,1,0,1.0133121000835699,1
11091,139,Larynx,Right iTBS,Cons,Noise,16,2,0,0.8897840999998149,1
11092,139,Larynx,Right iTBS,Cons,Noise,17,3,1,0.8087842999957501,1
11093,139,Larynx,Right iTBS,Cons,Noise,18,1,0,0.6297294999239971,1
11094,139,Larynx,Right iTBS,Cons,Noise,19,3,1,0.7667791999410841,1
11095,139,Larynx,Right iTBS,Cons,Noise,20,3,0,0.667305800016038,1
11096,139,Larynx,Right iTBS,Cons,Noise,21,3,1,0.954977200017311,1
11097,139,Larynx,Right iTBS,Cons,Noise,22,4,1,0.711692900047638,1
11098,139,Larynx,Right iTBS,Cons,Noise,23,4,0,0.5605184000451121,1
11099,139,Larynx,Right iTBS,Cons,Noise,24,5,1,0.6526993000879879,1
11100,139,Larynx,Right iTBS,Cons,Noise,25,3,0,0.554180299979635,1
11101,139,Larynx,Right iTBS,Cons,Noise,26,3,1,1.15304760006256,1
11102,139,Larynx,Right iTBS,Cons,Noise,27,3,0,0.6568024000152951,1
11103,139,Larynx,Right iTBS,Cons,Noise,28,1,0,0.8575634999433531,1
11104,139,Larynx,Right iTBS,Cons,Noise,29,4,1,0.797366700018756,1
11105,139,Larynx,Right iTBS,Cons,Noise,30,2,0,1.10133770003449,1
11106,139,Larynx,Right iTBS,Cons,Noise,31,2,0,0.6902380000101399,1
11107,139,Larynx,Right iTBS,Cons,Noise,32,3,1,0.55912910006009,1
11108,139,Larynx,Right iTBS,Cons,Noise,33,4,1,0.7196485999738801,1
11109,139,Larynx,Right iTBS,Cons,Noise,34,5,1,0.705952199990861,1
11110,139,Larynx,Right iTBS,Cons,Noise,35,2,0,0.5803529999684539,1
11111,139,Larynx,Right iTBS,Cons,Noise,36,2,0,0.648434599977918,1
11112,139,Larynx,Right iTBS,Cons,Noise,37,2,0,0.7007920000469311,1
11113,139,Larynx,Right iTBS,Cons,Noise,38,1,0,1.01570989994798,1
11114,139,Larynx,Right iTBS,Cons,Noise,39,2,0,0.6956401000497859,1
11115,139,Larynx,Right iTBS,Cons,Noise,40,4,1,0.710920700104907,1
11116,139,Larynx,Right iTBS,Cons,Noise,41,3,1,0.648258400033228,1
11117,139,Larynx,Right iTBS,Cons,Noise,42,4,1,0.7315822000382471,1
11118,139,Larynx,Right iTBS,Cons,Noise,43,1,0,0.5812634000321851,1
11119,139,Larynx,Right iTBS,Cons,Noise,44,1,0,0.6416228000307459,1
11120,139,Larynx,Right iTBS,Cons,Noise,45,2,0,0.657818099949509,1
11121,139,Larynx,Right iTBS,Cons,Noise,46,4,0,0.627050000010058,1
11122,139,Larynx,Right iTBS,Cons,Noise,47,4,0,0.5468630000250411,1
11123,139,Larynx,Right iTBS,Cons,Noise,48,5,1,0.5864818000700319,1
11124,139,Larynx,Right iTBS,Cons,Noise,49,4,1,0.8580197000410409,1
11125,139,Larynx,Right iTBS,Cons,Noise,50,2,0,0.7577162000816321,1
11126,139,Larynx,Right iTBS,Cons,Noise,51,1,0,0.606441199895926,1
11127,139,Larynx,Right iTBS,Cons,Noise,52,3,1,0.554524699924514,1
11128,139,Larynx,Right iTBS,Cons,Noise,53,5,1,0.640385299921036,1
11129,139,Larynx,Right iTBS,Cons,Noise,54,2,0,0.471653199987486,1
11130,139,Larynx,Right iTBS,Cons,Noise,55,2,0,0.5163997999625279,1
11131,139,Larynx,Right iTBS,Cons,Noise,56,3,1,0.592035099980421,1
11132,139,Larynx,Right iTBS,Cons,Noise,57,5,1,0.748696000082418,1
11133,139,Larynx,Right iTBS,Cons,Noise,58,3,0,0.6052985999267549,1
11134,139,Larynx,Right iTBS,Cons,Noise,59,3,0,0.781594299944118,1
11135,139,Larynx,Right iTBS,Cons,Noise,60,2,1,0.442245499929413,1
11136,139,Larynx,Right iTBS,Cons,Noise,61,3,1,0.45545670005958505,1
11137,139,Larynx,Right iTBS,Cons,Noise,62,4,0,0.34950490004848694,1
11138,139,Larynx,Right iTBS,Cons,Noise,63,3,0,0.5294573999708521,1
11139,139,Larynx,Right iTBS,Cons,Noise,64,5,0,0.784749299986288,1
11140,139,Larynx,Right iTBS,Cons,Noise,65,3,1,0.8869707999983799,1
11141,139,Larynx,Right iTBS,Cons,Noise,66,3,0,0.976505400030874,1
11142,139,Larynx,Right iTBS,Cons,Noise,67,4,1,0.957348400028422,1
11143,139,Larynx,Right iTBS,Cons,Noise,68,1,0,0.8942814999027181,1
11144,139,Larynx,Right iTBS,Cons,Noise,69,3,0,1.02901860000566,1
11145,139,Larynx,Right iTBS,Cons,Noise,70,5,1,0.68259060010314,1
11146,139,Larynx,Right iTBS,Cons,Noise,71,3,1,0.583937300019898,1
11147,139,Larynx,Right iTBS,Cons,Noise,72,4,0,0.56221840006765,1
11148,139,Larynx,Right iTBS,Cons,Noise,73,5,0,0.598913099966012,1
11149,139,Larynx,Right iTBS,Cons,Noise,74,2,1,0.618055199971423,1
11150,139,Larynx,Right iTBS,Cons,Noise,75,1,1,0.668526099994779,1
11151,139,Larynx,Right iTBS,Cons,Noise,76,2,0,0.5478406000183901,1
11152,139,Larynx,Right iTBS,Cons,Noise,77,1,0,0.634096099995077,1
11153,139,Larynx,Right iTBS,Cons,Noise,78,2,1,0.498814500053413,1
11154,139,Larynx,Right iTBS,Cons,Noise,79,5,1,0.9401191000361,1
11155,139,Larynx,Right iTBS,Cons,Noise,80,2,0,0.6680247000185771,1
11156,139,Larynx,Right iTBS,Cons,Noise,81,2,0,0.7266784999519591,1
11157,139,Larynx,Right iTBS,Cons,Noise,82,2,1,1.0735559000168,1
11158,139,Larynx,Right iTBS,Cons,Noise,83,4,1,0.9270217999583109,1
11159,139,Larynx,Right iTBS,Cons,Noise,84,2,0,0.593912599957548,1
11160,139,Larynx,Right iTBS,Cons,Noise,85,2,0,0.563792600063607,1
11161,139,Larynx,Right iTBS,Cons,Noise,86,1,0,0.6637493000598621,1
11162,139,Larynx,Right iTBS,Cons,Noise,87,5,1,0.630773600074463,1
11163,139,Larynx,Right iTBS,Cons,Noise,88,5,1,0.776275499956682,1
11164,139,Larynx,Right iTBS,Cons,Noise,89,3,0,0.522340799914673,1
11165,139,Larynx,Right iTBS,Cons,Noise,90,3,0,0.508032499928959,1
11166,139,Larynx,Right iTBS,Cons,Noise,91,3,0,0.6278091999702161,1
11167,139,Larynx,Right iTBS,Cons,Noise,92,4,0,0.6232580000068989,1
11168,139,Larynx,Right iTBS,Cons,Noise,93,4,1,0.678073200047947,1
11169,139,Larynx,Right iTBS,Cons,Noise,94,5,1,0.7191382999299091,1
11170,139,Larynx,Right iTBS,Cons,Noise,95,4,1,0.747924999915995,1
11171,139,Larynx,Right iTBS,Cons,Noise,96,5,0,0.771769799990579,1
11172,139,Larynx,Right iTBS,Cons,Noise,97,1,0,0.646765500074252,1
11173,139,Larynx,Right iTBS,Cons,Noise,98,3,1,0.6386361001059411,1
11174,139,Larynx,Right iTBS,Cons,Noise,99,1,0,0.646925900015049,1
11175,139,Larynx,Right iTBS,Cons,Noise,100,3,0,0.7264542999910191,1
11176,139,Larynx,Right iTBS,Cons,Noise,101,1,0,0.8394984999904409,1
11177,139,Larynx,Right iTBS,Cons,Noise,102,4,1,0.517847600043751,1
11178,139,Larynx,Right iTBS,Cons,Noise,103,3,1,0.622295100009069,1
11179,139,Larynx,Right iTBS,Cons,Noise,104,4,1,0.852045199950226,1
11180,139,Larynx,Right iTBS,Cons,Noise,105,2,0,0.554465800058097,1
11181,139,Larynx,Right iTBS,Cons,Noise,106,3,0,0.6458424000302329,1
11182,139,Larynx,Right iTBS,Cons,Noise,107,3,1,0.718110200017691,1
11183,139,Larynx,Right iTBS,Cons,Noise,108,5,1,0.670362900011241,1
11184,139,Larynx,Right iTBS,Cons,Noise,109,3,0,0.5831044999649749,1
11185,139,Larynx,Right iTBS,Cons,Noise,110,2,0,0.526410800055601,1
11186,139,Larynx,Right iTBS,Cons,Noise,111,1,0,0.850305199972354,1
11187,139,Larynx,Right iTBS,Cons,Noise,112,4,1,0.5676986000034959,1
11188,139,Larynx,Right iTBS,Cons,Noise,113,3,1,0.5808359000366179,1
11189,139,Larynx,Right iTBS,Cons,Noise,114,4,0,0.8832859999965881,1
11190,139,Larynx,Right iTBS,Cons,Noise,115,1,0,0.725540199899115,1
11191,139,Larynx,Right iTBS,Cons,Noise,116,2,1,0.648855400038883,1
11192,139,Larynx,Right iTBS,Cons,Noise,117,3,1,0.590450100018643,1
11193,139,Larynx,Right iTBS,Cons,Noise,118,1,0,0.7348458999767901,1
11194,139,Larynx,Right iTBS,Cons,Noise,119,3,0,0.824538600048982,1
11195,139,Larynx,Right iTBS,Cons,Noise,120,1,1,0.679171100025997,1
11196,139,Larynx,Right iTBS,Cons,Noise,121,3,1,0.7231201000977309,1
11197,139,Larynx,Right iTBS,Cons,Noise,122,2,1,0.806834800052457,1
11198,139,Larynx,Right iTBS,Cons,Noise,123,4,1,0.773221099982038,1
11199,139,Larynx,Right iTBS,Cons,Noise,124,4,0,0.693908500019461,1
11200,139,Larynx,Right iTBS,Cons,Noise,125,3,0,0.6967382000293579,1
11201,139,Larynx,Right iTBS,Cons,Noise,126,3,0,0.7766188000096009,1
11202,139,Larynx,Right iTBS,Cons,Noise,127,2,1,0.652134399977513,1
11203,139,Larynx,Right iTBS,Cons,Noise,128,4,1,0.598931499989703,1
11204,139,Larynx,Right iTBS,Cons,Noise,129,5,1,0.5719450999749821,1
11205,139,Larynx,Right iTBS,Cons,Noise,130,2,1,1.08510599995498,1
11206,139,Larynx,Right iTBS,Cons,Noise,131,1,1,1.21646120003425,1
11207,139,Larynx,Right iTBS,Cons,Noise,132,2,0,0.557570499950089,1
11208,139,Larynx,Right iTBS,Cons,Noise,133,5,1,0.994042200036347,1
11209,139,Larynx,Right iTBS,Cons,Noise,134,3,1,0.7585088999476279,1
11210,139,Larynx,Right iTBS,Cons,Noise,135,3,0,0.5872610999504101,1
11211,139,Larynx,Right iTBS,Cons,Noise,136,3,0,0.567773099988699,1
11212,139,Larynx,Right iTBS,Cons,Noise,137,2,1,0.506976900040172,1
11213,139,Larynx,Right iTBS,Cons,Noise,138,3,0,0.790999399963766,1
11214,139,Larynx,Right iTBS,Cons,Noise,139,4,1,0.583063099998981,1
11215,139,Larynx,Right iTBS,Cons,Noise,140,3,1,0.638145999982953,1
11216,139,Larynx,Right iTBS,Cons,Noise,141,4,1,1.2140886998968201,1
11217,139,Larynx,Right iTBS,Cons,Noise,142,1,0,0.620717699988745,1
11218,139,Larynx,Right iTBS,Cons,Noise,143,5,1,0.766499800025485,1
11219,139,Larynx,Right iTBS,Cons,Noise,144,2,0,0.920083699980751,1
11220,139,Larynx,Right iTBS,Cons,Noise,145,3,1,0.5659746000310409,1
11221,139,Larynx,Right iTBS,Cons,Noise,146,4,1,1.0645322999917,1
11222,139,Larynx,Right iTBS,Cons,Noise,147,1,0,0.812736500054598,1
11223,139,Larynx,Right iTBS,Cons,Noise,148,1,0,0.868490100023337,1
11224,139,Larynx,Right iTBS,Cons,Noise,149,2,0,1.06172800005879,1
11225,139,Larynx,Right iTBS,Cons,Noise,150,5,1,0.5978537000482901,1
11226,139,Larynx,Right iTBS,Cons,Noise,151,5,0,0.7865652999607851,1
11227,139,Larynx,Right iTBS,Cons,Noise,152,5,1,0.551218400010839,1
11228,139,Larynx,Right iTBS,Cons,Noise,153,4,0,0.633477399940602,1
11229,139,Larynx,Right iTBS,Cons,Noise,154,3,1,1.22823369991966,1
11230,139,Larynx,Right iTBS,Cons,Noise,155,2,0,0.655622000107542,1
11231,139,Larynx,Right iTBS,Cons,Noise,156,4,1,0.496282099978998,1
12324,139,Larynx,Sham,Cons,Noise,1,3,0,0.9110518000015869,1
12325,139,Larynx,Sham,Cons,Noise,2,3,0,1.04257049999433,1
12326,139,Larynx,Sham,Cons,Noise,3,5,1,0.779261099996802,1
12327,139,Larynx,Sham,Cons,Noise,4,1,0,0.6092513000039621,1
12328,139,Larynx,Sham,Cons,Noise,5,2,0,0.855757600002107,1
12329,139,Larynx,Sham,Cons,Noise,6,3,1,0.6486449000003629,1
12330,139,Larynx,Sham,Cons,Noise,7,2,0,0.659676700001,1
12331,139,Larynx,Sham,Cons,Noise,8,2,0,0.5399001999976459,1
12332,139,Larynx,Sham,Cons,Noise,9,5,0,0.7532875000033531,1
12333,139,Larynx,Sham,Cons,Noise,10,4,1,0.626859800002421,1
12334,139,Larynx,Sham,Cons,Noise,11,5,0,0.675837199996749,1
12335,139,Larynx,Sham,Cons,Noise,12,1,0,0.6801493000020861,1
12336,139,Larynx,Sham,Cons,Noise,13,1,0,0.8345283000016929,1
12337,139,Larynx,Sham,Cons,Noise,14,4,1,0.5742343000019899,1
12338,139,Larynx,Sham,Cons,Noise,15,5,1,1.02788769999461,1
12339,139,Larynx,Sham,Cons,Noise,16,2,0,0.578668499998457,1
12340,139,Larynx,Sham,Cons,Noise,17,4,0,0.527675100005581,1
12341,139,Larynx,Sham,Cons,Noise,18,4,0,0.908719300001394,1
12342,139,Larynx,Sham,Cons,Noise,19,3,1,0.7304697999934431,1
12343,139,Larynx,Sham,Cons,Noise,20,3,1,0.6828562000009699,1
12344,139,Larynx,Sham,Cons,Noise,21,2,0,0.573678699998709,1
12345,139,Larynx,Sham,Cons,Noise,22,1,0,0.44668130000354705,1
12346,139,Larynx,Sham,Cons,Noise,23,4,0,0.8882991999998922,1
12347,139,Larynx,Sham,Cons,Noise,24,3,0,0.730717899998126,1
12348,139,Larynx,Sham,Cons,Noise,25,3,1,0.585226799994416,1
12349,139,Larynx,Sham,Cons,Noise,26,3,1,1.45940210000117,1
12350,139,Larynx,Sham,Cons,Noise,27,1,0,0.497756200005824,1
12351,139,Larynx,Sham,Cons,Noise,28,5,0,0.7697221999987959,1
12352,139,Larynx,Sham,Cons,Noise,29,2,0,0.90937169999961,1
12353,139,Larynx,Sham,Cons,Noise,30,4,1,0.632348399994953,1
12354,139,Larynx,Sham,Cons,Noise,31,2,1,0.47187200000189505,1
12355,139,Larynx,Sham,Cons,Noise,32,3,1,0.891036500004702,1
12356,139,Larynx,Sham,Cons,Noise,33,3,1,1.0831365999984,1
12357,139,Larynx,Sham,Cons,Noise,34,2,0,0.588364100003673,1
12358,139,Larynx,Sham,Cons,Noise,35,4,0,0.654328899996472,1
12359,139,Larynx,Sham,Cons,Noise,36,3,1,0.7239996999996949,1
12360,139,Larynx,Sham,Cons,Noise,37,5,1,0.6555121000055811,1
12361,139,Larynx,Sham,Cons,Noise,38,1,0,0.675410299998475,1
12362,139,Larynx,Sham,Cons,Noise,39,4,1,0.870407200003683,1
12363,139,Larynx,Sham,Cons,Noise,40,5,1,0.8179533000002271,1
12364,139,Larynx,Sham,Cons,Noise,41,3,0,0.655102400000033,1
12365,139,Larynx,Sham,Cons,Noise,42,3,0,0.8080043000009031,1
12366,139,Larynx,Sham,Cons,Noise,43,4,1,0.5772940999959251,1
12367,139,Larynx,Sham,Cons,Noise,44,3,1,0.599535800000012,1
12368,139,Larynx,Sham,Cons,Noise,45,4,1,0.7542733000009321,1
12369,139,Larynx,Sham,Cons,Noise,46,1,0,0.630612900000415,1
12370,139,Larynx,Sham,Cons,Noise,47,3,0,0.7135674000019209,1
12371,139,Larynx,Sham,Cons,Noise,48,2,1,0.743721399994683,1
12372,139,Larynx,Sham,Cons,Noise,49,1,1,0.7021495000008139,1
12373,139,Larynx,Sham,Cons,Noise,50,4,0,0.765455900000234,1
12374,139,Larynx,Sham,Cons,Noise,51,3,1,1.2260877000007901,1
12375,139,Larynx,Sham,Cons,Noise,52,3,1,0.7053495999934971,1
12376,139,Larynx,Sham,Cons,Noise,53,1,0,0.641648199998599,1
12377,139,Larynx,Sham,Cons,Noise,54,5,0,0.5672265999965022,1
12378,139,Larynx,Sham,Cons,Noise,55,2,0,0.9343277000007221,1
12379,139,Larynx,Sham,Cons,Noise,56,1,1,0.6241588000048071,1
12380,139,Larynx,Sham,Cons,Noise,57,4,1,0.7011325999992549,1
12381,139,Larynx,Sham,Cons,Noise,58,4,1,1.29811930000142,1
12382,139,Larynx,Sham,Cons,Noise,59,2,0,0.568011899995327,1
12383,139,Larynx,Sham,Cons,Noise,60,2,1,0.811904999995022,1
12384,139,Larynx,Sham,Cons,Noise,61,4,1,0.7153619000018809,1
12385,139,Larynx,Sham,Cons,Noise,62,3,0,0.509508300005109,1
12386,139,Larynx,Sham,Cons,Noise,63,2,0,0.6045429000005239,1
12387,139,Larynx,Sham,Cons,Noise,64,3,1,0.8372987000038851,1
12388,139,Larynx,Sham,Cons,Noise,65,3,0,0.8875336999990401,1
12389,139,Larynx,Sham,Cons,Noise,66,5,0,0.7510036999956361,1
12390,139,Larynx,Sham,Cons,Noise,67,2,1,0.6332299999994581,1
12391,139,Larynx,Sham,Cons,Noise,68,2,1,1.03559530000348,1
12392,139,Larynx,Sham,Cons,Noise,69,4,1,0.802570799998648,1
12393,139,Larynx,Sham,Cons,Noise,70,5,1,0.76727050000045,1
12394,139,Larynx,Sham,Cons,Noise,71,1,0,0.648172400004114,1
12395,139,Larynx,Sham,Cons,Noise,72,5,0,1.26096499999403,1
12396,139,Larynx,Sham,Cons,Noise,73,1,0,0.800400599997374,1
12397,139,Larynx,Sham,Cons,Noise,74,4,1,0.7542238000023641,1
12398,139,Larynx,Sham,Cons,Noise,75,3,1,0.820479400004842,1
12399,139,Larynx,Sham,Cons,Noise,76,2,0,0.9393037000045301,1
12400,139,Larynx,Sham,Cons,Noise,77,3,1,0.906164699998044,1
12401,139,Larynx,Sham,Cons,Noise,78,5,1,0.8011071000000809,1
12402,139,Larynx,Sham,Cons,Noise,79,4,1,0.752925900000264,1
12403,139,Larynx,Sham,Cons,Noise,80,5,1,0.7635160999998329,1
12404,139,Larynx,Sham,Cons,Noise,81,2,0,0.7194633000035541,1
12405,139,Larynx,Sham,Cons,Noise,82,3,0,0.9147148000047309,1
12406,139,Larynx,Sham,Cons,Noise,83,4,1,0.648968100002094,1
12407,139,Larynx,Sham,Cons,Noise,84,4,1,0.635691200004658,1
12408,139,Larynx,Sham,Cons,Noise,85,2,0,1.0461502000034701,1
12409,139,Larynx,Sham,Cons,Noise,86,2,1,1.01382579999336,1
12410,139,Larynx,Sham,Cons,Noise,87,3,1,0.8546698999998629,1
12411,139,Larynx,Sham,Cons,Noise,88,5,0,0.706338100004359,1
12412,139,Larynx,Sham,Cons,Noise,89,1,0,0.8299078999989431,1
12413,139,Larynx,Sham,Cons,Noise,90,4,0,1.014783300001,1
12414,139,Larynx,Sham,Cons,Noise,91,3,1,0.737499700000626,1
12415,139,Larynx,Sham,Cons,Noise,92,1,1,0.6257874000002629,1
12416,139,Larynx,Sham,Cons,Noise,93,3,1,0.849614100006875,1
12417,139,Larynx,Sham,Cons,Noise,94,3,0,0.723958000002312,1
12418,139,Larynx,Sham,Cons,Noise,95,1,0,0.616128500005289,1
12419,139,Larynx,Sham,Cons,Noise,96,2,1,0.69486259999394,1
12420,139,Larynx,Sham,Cons,Noise,97,5,1,0.9596935999943531,1
12421,139,Larynx,Sham,Cons,Noise,98,5,1,0.672813099998166,1
12422,139,Larynx,Sham,Cons,Noise,99,4,1,1.04374420000386,1
12423,139,Larynx,Sham,Cons,Noise,100,3,1,0.8338328000027099,1
12424,139,Larynx,Sham,Cons,Noise,101,3,1,0.769350599999598,1
12425,139,Larynx,Sham,Cons,Noise,102,5,1,1.0002827999997,1
12426,139,Larynx,Sham,Cons,Noise,103,4,1,0.8449968999993871,1
12427,139,Larynx,Sham,Cons,Noise,104,3,0,0.641594699998677,1
12428,139,Larynx,Sham,Cons,Noise,105,2,0,0.660962599999039,1
12429,139,Larynx,Sham,Cons,Noise,106,4,1,0.734343399999489,1
12430,139,Larynx,Sham,Cons,Noise,107,1,0,0.727097199996933,1
12431,139,Larynx,Sham,Cons,Noise,108,1,0,0.978320800000802,1
12432,139,Larynx,Sham,Cons,Noise,109,3,1,0.7162565000035099,1
12433,139,Larynx,Sham,Cons,Noise,110,2,1,0.666358900001796,1
12434,139,Larynx,Sham,Cons,Noise,111,1,0,0.847150599998713,1
12435,139,Larynx,Sham,Cons,Noise,112,5,1,0.802483699997538,1
12436,139,Larynx,Sham,Cons,Noise,113,2,1,0.707642599998508,1
12437,139,Larynx,Sham,Cons,Noise,114,4,1,0.9263742999974058,1
12438,139,Larynx,Sham,Cons,Noise,115,3,0,0.8901707000040909,1
12439,139,Larynx,Sham,Cons,Noise,116,3,1,0.9212662999998431,1
12440,139,Larynx,Sham,Cons,Noise,117,2,1,0.725737000000663,1
12441,139,Larynx,Sham,Cons,Noise,118,1,1,0.6436586999989229,1
12442,139,Larynx,Sham,Cons,Noise,119,4,1,0.733762699994259,1
12443,139,Larynx,Sham,Cons,Noise,120,4,0,0.7141984999980201,1
12444,139,Larynx,Sham,Cons,Noise,121,2,1,0.630473299999721,1
12445,139,Larynx,Sham,Cons,Noise,122,1,0,0.692942399997264,1
12446,139,Larynx,Sham,Cons,Noise,123,2,0,0.579567900000256,1
12447,139,Larynx,Sham,Cons,Noise,124,5,1,0.5058897000053549,1
12448,139,Larynx,Sham,Cons,Noise,125,4,1,0.500767399993492,1
12449,139,Larynx,Sham,Cons,Noise,126,2,0,0.544521399999212,1
12450,139,Larynx,Sham,Cons,Noise,127,3,0,0.523943599997438,1
12451,139,Larynx,Sham,Cons,Noise,128,4,1,0.444942499998433,1
12452,139,Larynx,Sham,Cons,Noise,129,3,1,0.7312855999989549,1
12453,139,Larynx,Sham,Cons,Noise,130,1,0,0.7040913000018921,1
12454,139,Larynx,Sham,Cons,Noise,131,2,0,0.567244400001073,1
12455,139,Larynx,Sham,Cons,Noise,132,1,1,0.822846399998525,1
12456,139,Larynx,Sham,Cons,Noise,133,3,1,1.05786030000309,1
12457,139,Larynx,Sham,Cons,Noise,134,4,0,0.559263900002406,1
12458,139,Larynx,Sham,Cons,Noise,135,3,1,0.904535599998781,1
12459,139,Larynx,Sham,Cons,Noise,136,3,0,0.765864699998929,1
12460,139,Larynx,Sham,Cons,Noise,137,5,0,0.6970887999996189,1
12461,139,Larynx,Sham,Cons,Noise,138,2,1,0.6784105999977329,1
12462,139,Larynx,Sham,Cons,Noise,139,3,0,0.769005199996172,1
12463,139,Larynx,Sham,Cons,Noise,140,2,1,0.846131300000707,1
12464,139,Larynx,Sham,Cons,Noise,141,5,0,0.558219600003213,1
12465,139,Larynx,Sham,Cons,Noise,142,3,1,0.547192700003507,1
12466,139,Larynx,Sham,Cons,Noise,143,5,1,0.811133700000937,1
12467,139,Larynx,Sham,Cons,Noise,144,2,0,0.529191699999501,1
12468,139,Larynx,Sham,Cons,Noise,145,3,1,0.7933334999979709,1
12469,139,Larynx,Sham,Cons,Noise,146,1,0,0.6581952000051391,1
12470,139,Larynx,Sham,Cons,Noise,147,3,1,0.694754500000272,1
12471,139,Larynx,Sham,Cons,Noise,148,4,1,0.86367899999459,1
12472,139,Larynx,Sham,Cons,Noise,149,4,1,0.9666818999976391,1
12473,139,Larynx,Sham,Cons,Noise,150,2,1,0.8184639000028259,1
12474,139,Larynx,Sham,Cons,Noise,151,5,1,0.963317899993854,1
12475,139,Larynx,Sham,Cons,Noise,152,3,1,0.75918929999898,1
12476,139,Larynx,Sham,Cons,Noise,153,3,1,0.7464274999947521,1
12477,139,Larynx,Sham,Cons,Noise,154,5,0,0.563970700000937,1
12478,139,Larynx,Sham,Cons,Noise,155,4,1,0.8971190000011121,1
12479,139,Larynx,Sham,Cons,Noise,156,1,0,0.79276309999841,1
14196,142,Larynx,Right iTBS,Cons,Noise,1,3,0,0.7440017000189979,1
14197,142,Larynx,Right iTBS,Cons,Noise,2,4,1,0.56849420000799,1
14198,142,Larynx,Right iTBS,Cons,Noise,3,4,0,0.6754803000076209,1
14199,142,Larynx,Right iTBS,Cons,Noise,4,5,1,0.5738483000022819,1
14200,142,Larynx,Right iTBS,Cons,Noise,5,4,1,0.5005775000026921,1
14201,142,Larynx,Right iTBS,Cons,Noise,6,4,1,0.5570517000160179,1
14202,142,Larynx,Right iTBS,Cons,Noise,7,5,1,0.634712400002172,1
14203,142,Larynx,Right iTBS,Cons,Noise,8,5,1,0.7811597999825609,1
14204,142,Larynx,Right iTBS,Cons,Noise,9,1,0,0.616964899993036,1
14205,142,Larynx,Right iTBS,Cons,Noise,10,3,1,0.599700899998425,1
14206,142,Larynx,Right iTBS,Cons,Noise,11,5,0,0.568768099998124,1
14207,142,Larynx,Right iTBS,Cons,Noise,12,2,1,0.473123799980385,1
14208,142,Larynx,Right iTBS,Cons,Noise,13,3,1,0.7052097000123471,1
14209,142,Larynx,Right iTBS,Cons,Noise,14,1,0,0.5389191999856849,1
14210,142,Larynx,Right iTBS,Cons,Noise,15,1,0,0.616844399977708,1
14211,142,Larynx,Right iTBS,Cons,Noise,16,2,1,0.7420635999878872,1
14212,142,Larynx,Right iTBS,Cons,Noise,17,3,0,0.5901473999838339,1
14213,142,Larynx,Right iTBS,Cons,Noise,18,1,0,0.593486000027042,1
14214,142,Larynx,Right iTBS,Cons,Noise,19,3,1,0.665491900028428,1
14215,142,Larynx,Right iTBS,Cons,Noise,20,3,1,0.902915200014832,1
14216,142,Larynx,Right iTBS,Cons,Noise,21,3,0,0.556684200011659,1
14217,142,Larynx,Right iTBS,Cons,Noise,22,4,1,0.602620400022715,1
14218,142,Larynx,Right iTBS,Cons,Noise,23,4,1,0.9464791000064,1
14219,142,Larynx,Right iTBS,Cons,Noise,24,5,0,0.6047189000237271,1
14220,142,Larynx,Right iTBS,Cons,Noise,25,3,1,0.528017800010275,1
14221,142,Larynx,Right iTBS,Cons,Noise,26,3,1,0.47472939998260705,1
14222,142,Larynx,Right iTBS,Cons,Noise,27,3,0,0.637368700001389,1
14223,142,Larynx,Right iTBS,Cons,Noise,28,1,0,0.8177697999926751,1
14224,142,Larynx,Right iTBS,Cons,Noise,29,4,1,0.5736557999916839,1
14225,142,Larynx,Right iTBS,Cons,Noise,30,2,1,0.8892335999989879,1
14226,142,Larynx,Right iTBS,Cons,Noise,31,2,0,0.6832987999950999,1
14227,142,Larynx,Right iTBS,Cons,Noise,32,3,1,0.6962889999849721,1
14228,142,Larynx,Right iTBS,Cons,Noise,33,4,1,0.6851404999906661,1
14229,142,Larynx,Right iTBS,Cons,Noise,34,5,1,0.7101624000060841,1
14230,142,Larynx,Right iTBS,Cons,Noise,35,2,0,0.559069699986139,1
14231,142,Larynx,Right iTBS,Cons,Noise,36,2,1,0.644717400020454,1
14232,142,Larynx,Right iTBS,Cons,Noise,37,2,0,0.55038970001624,1
14233,142,Larynx,Right iTBS,Cons,Noise,38,1,0,0.6051663999969611,1
14234,142,Larynx,Right iTBS,Cons,Noise,39,2,1,0.69629810002516,1
14235,142,Larynx,Right iTBS,Cons,Noise,40,4,1,0.732224699982908,1
14236,142,Larynx,Right iTBS,Cons,Noise,41,3,0,0.8120950000011359,1
14237,142,Larynx,Right iTBS,Cons,Noise,42,4,1,0.498020600003656,1
14238,142,Larynx,Right iTBS,Cons,Noise,43,1,0,0.559937100013485,1
14239,142,Larynx,Right iTBS,Cons,Noise,44,1,0,0.649992199992994,1
14240,142,Larynx,Right iTBS,Cons,Noise,45,2,1,0.7882651000109041,1
14241,142,Larynx,Right iTBS,Cons,Noise,46,4,0,0.696013699984178,1
14242,142,Larynx,Right iTBS,Cons,Noise,47,4,1,0.65493950000382,1
14243,142,Larynx,Right iTBS,Cons,Noise,48,5,1,0.604914199997438,1
14244,142,Larynx,Right iTBS,Cons,Noise,49,4,0,0.7499151999945749,1
14245,142,Larynx,Right iTBS,Cons,Noise,50,2,0,0.6646882999921221,1
14246,142,Larynx,Right iTBS,Cons,Noise,51,1,0,0.5946318999922371,1
14247,142,Larynx,Right iTBS,Cons,Noise,52,3,1,0.489851699996507,1
14248,142,Larynx,Right iTBS,Cons,Noise,53,5,1,0.7177429999865129,1
14249,142,Larynx,Right iTBS,Cons,Noise,54,2,0,0.580646399990655,1
14250,142,Larynx,Right iTBS,Cons,Noise,55,2,0,0.6910640999849421,1
14251,142,Larynx,Right iTBS,Cons,Noise,56,3,1,0.5295196999795729,1
14252,142,Larynx,Right iTBS,Cons,Noise,57,5,1,1.0178339999984,1
14253,142,Larynx,Right iTBS,Cons,Noise,58,3,0,0.674888999987161,1
14254,142,Larynx,Right iTBS,Cons,Noise,59,3,1,0.60035780002363,1
14255,142,Larynx,Right iTBS,Cons,Noise,60,2,0,0.806433699995978,1
14256,142,Larynx,Right iTBS,Cons,Noise,61,3,0,0.8166697999986351,1
14257,142,Larynx,Right iTBS,Cons,Noise,62,4,1,0.5947148999839561,1
14258,142,Larynx,Right iTBS,Cons,Noise,63,3,1,0.762232500012033,1
14259,142,Larynx,Right iTBS,Cons,Noise,64,5,1,0.9428552000026679,1
14260,142,Larynx,Right iTBS,Cons,Noise,65,3,1,0.666509500006214,1
14261,142,Larynx,Right iTBS,Cons,Noise,66,3,0,0.5982537000090821,1
14262,142,Larynx,Right iTBS,Cons,Noise,67,4,1,0.8712500999972691,1
14263,142,Larynx,Right iTBS,Cons,Noise,68,1,0,0.637776000017766,1
14264,142,Larynx,Right iTBS,Cons,Noise,69,3,0,0.6418599000026011,1
14265,142,Larynx,Right iTBS,Cons,Noise,70,5,1,0.48990760001470296,1
14266,142,Larynx,Right iTBS,Cons,Noise,71,3,1,0.624256000010064,1
14267,142,Larynx,Right iTBS,Cons,Noise,72,4,1,0.8297454999992621,1
14268,142,Larynx,Right iTBS,Cons,Noise,73,5,1,0.627090800000587,1
14269,142,Larynx,Right iTBS,Cons,Noise,74,2,0,0.534210200014059,1
14270,142,Larynx,Right iTBS,Cons,Noise,75,1,0,0.630320900003426,1
14271,142,Larynx,Right iTBS,Cons,Noise,76,2,0,0.6570744000200649,1
14272,142,Larynx,Right iTBS,Cons,Noise,77,1,0,0.6387235000147479,1
14273,142,Larynx,Right iTBS,Cons,Noise,78,2,0,0.6118281999952161,1
14274,142,Larynx,Right iTBS,Cons,Noise,79,5,1,0.40612369999871595,1
14275,142,Larynx,Right iTBS,Cons,Noise,80,2,0,0.603937700012466,1
14276,142,Larynx,Right iTBS,Cons,Noise,81,2,0,0.558691099984571,1
14277,142,Larynx,Right iTBS,Cons,Noise,82,2,0,0.716650600021239,1
14278,142,Larynx,Right iTBS,Cons,Noise,83,4,1,0.598494100006064,1
14279,142,Larynx,Right iTBS,Cons,Noise,84,2,0,0.7547447999822908,1
14280,142,Larynx,Right iTBS,Cons,Noise,85,2,0,0.602848299982725,1
14281,142,Larynx,Right iTBS,Cons,Noise,86,1,0,0.54054359998554,1
14282,142,Larynx,Right iTBS,Cons,Noise,87,5,0,0.8305009999894541,1
14283,142,Larynx,Right iTBS,Cons,Noise,88,5,1,0.8239724999875758,1
14284,142,Larynx,Right iTBS,Cons,Noise,89,3,1,0.8515302999876441,1
14285,142,Larynx,Right iTBS,Cons,Noise,90,3,1,0.5663311000098471,1
14286,142,Larynx,Right iTBS,Cons,Noise,91,3,0,0.5383040000160689,1
14287,142,Larynx,Right iTBS,Cons,Noise,92,4,0,0.6881828999903521,1
14288,142,Larynx,Right iTBS,Cons,Noise,93,4,1,0.7382917999930211,1
14289,142,Larynx,Right iTBS,Cons,Noise,94,5,0,0.587813699996332,1
14290,142,Larynx,Right iTBS,Cons,Noise,95,4,1,0.44702610000968,1
14291,142,Larynx,Right iTBS,Cons,Noise,96,5,1,0.62062239999068,1
14292,142,Larynx,Right iTBS,Cons,Noise,97,1,0,0.465470399998594,1
14293,142,Larynx,Right iTBS,Cons,Noise,98,3,0,0.8568855000194159,1
14294,142,Larynx,Right iTBS,Cons,Noise,99,1,0,0.652667599992128,1
14295,142,Larynx,Right iTBS,Cons,Noise,100,3,1,0.728227200015681,1
14296,142,Larynx,Right iTBS,Cons,Noise,101,1,0,0.576023400004487,1
14297,142,Larynx,Right iTBS,Cons,Noise,102,4,1,0.6272233000199781,1
14298,142,Larynx,Right iTBS,Cons,Noise,103,3,0,0.5806332000065589,1
14299,142,Larynx,Right iTBS,Cons,Noise,104,4,1,0.4161545000097249,1
14300,142,Larynx,Right iTBS,Cons,Noise,105,2,0,0.575822000013432,1
14301,142,Larynx,Right iTBS,Cons,Noise,106,3,1,0.9354671000037341,1
14302,142,Larynx,Right iTBS,Cons,Noise,107,3,1,0.8004271000099829,1
14303,142,Larynx,Right iTBS,Cons,Noise,108,5,1,0.765087600011611,1
14304,142,Larynx,Right iTBS,Cons,Noise,109,3,1,0.7924097000213809,1
14305,142,Larynx,Right iTBS,Cons,Noise,110,2,0,0.586886700009927,1
14306,142,Larynx,Right iTBS,Cons,Noise,111,1,0,0.669494500005385,1
14307,142,Larynx,Right iTBS,Cons,Noise,112,4,1,0.512810800020816,1
14308,142,Larynx,Right iTBS,Cons,Noise,113,3,1,0.8606861000007479,1
14309,142,Larynx,Right iTBS,Cons,Noise,114,4,1,0.5837848999944979,1
14310,142,Larynx,Right iTBS,Cons,Noise,115,1,0,0.600269699993078,1
14311,142,Larynx,Right iTBS,Cons,Noise,116,2,0,0.930107299995143,1
14312,142,Larynx,Right iTBS,Cons,Noise,117,3,1,0.604416800022591,1
14313,142,Larynx,Right iTBS,Cons,Noise,118,1,0,0.917503000004217,1
14314,142,Larynx,Right iTBS,Cons,Noise,119,3,1,0.743491299974266,1
14315,142,Larynx,Right iTBS,Cons,Noise,120,1,0,0.640824600006454,1
14316,142,Larynx,Right iTBS,Cons,Noise,121,3,1,0.5951390000118411,1
14317,142,Larynx,Right iTBS,Cons,Noise,122,2,0,0.573713899997529,1
14318,142,Larynx,Right iTBS,Cons,Noise,123,4,1,0.5833690999716049,1
14319,142,Larynx,Right iTBS,Cons,Noise,124,4,1,0.8731697000039279,1
14320,142,Larynx,Right iTBS,Cons,Noise,125,3,1,0.791525899985572,1
14321,142,Larynx,Right iTBS,Cons,Noise,126,3,0,0.591413999994984,1
14322,142,Larynx,Right iTBS,Cons,Noise,127,2,0,0.8625065000087491,1
14323,142,Larynx,Right iTBS,Cons,Noise,128,4,1,0.5891073000093461,1
14324,142,Larynx,Right iTBS,Cons,Noise,129,5,1,0.8088986999937329,1
14325,142,Larynx,Right iTBS,Cons,Noise,130,2,0,0.533603599993512,1
14326,142,Larynx,Right iTBS,Cons,Noise,131,1,0,0.646179900009884,1
14327,142,Larynx,Right iTBS,Cons,Noise,132,2,1,0.543526499997824,1
14328,142,Larynx,Right iTBS,Cons,Noise,133,5,1,0.689583800005494,1
14329,142,Larynx,Right iTBS,Cons,Noise,134,3,0,0.7403735999832858,1
14330,142,Larynx,Right iTBS,Cons,Noise,135,3,0,0.695950399996946,1
14331,142,Larynx,Right iTBS,Cons,Noise,136,3,0,0.6818485000112561,1
14332,142,Larynx,Right iTBS,Cons,Noise,137,2,0,0.7409555000194809,1
14333,142,Larynx,Right iTBS,Cons,Noise,138,3,1,0.6422367999912241,1
14334,142,Larynx,Right iTBS,Cons,Noise,139,4,1,0.650754900008906,1
14335,142,Larynx,Right iTBS,Cons,Noise,140,3,0,0.6677920999936761,1
14336,142,Larynx,Right iTBS,Cons,Noise,141,4,1,0.432680099998834,1
14337,142,Larynx,Right iTBS,Cons,Noise,142,1,0,0.505774399993243,1
14338,142,Larynx,Right iTBS,Cons,Noise,143,5,1,0.64052059999085,1
14339,142,Larynx,Right iTBS,Cons,Noise,144,2,0,0.6660006000020079,1
14340,142,Larynx,Right iTBS,Cons,Noise,145,3,1,0.443446699995548,1
14341,142,Larynx,Right iTBS,Cons,Noise,146,4,1,0.655598799989093,1
14342,142,Larynx,Right iTBS,Cons,Noise,147,1,0,0.46273769999970704,1
14343,142,Larynx,Right iTBS,Cons,Noise,148,1,0,0.595732300018426,1
14344,142,Larynx,Right iTBS,Cons,Noise,149,2,1,0.808253399998648,1
14345,142,Larynx,Right iTBS,Cons,Noise,150,5,1,0.623934200004442,1
14346,142,Larynx,Right iTBS,Cons,Noise,151,5,1,0.7538932000170459,1
14347,142,Larynx,Right iTBS,Cons,Noise,152,5,1,0.673203700018348,1
14348,142,Larynx,Right iTBS,Cons,Noise,153,4,0,0.7508504999859721,1
14349,142,Larynx,Right iTBS,Cons,Noise,154,3,1,0.6838478000136091,1
14350,142,Larynx,Right iTBS,Cons,Noise,155,2,0,0.815648499992676,1
14351,142,Larynx,Right iTBS,Cons,Noise,156,4,1,0.617379300005268,1
15444,142,Larynx,Sham,Cons,Noise,1,5,0,0.7675883000010799,1
15445,142,Larynx,Sham,Cons,Noise,2,4,1,0.5011402999989509,1
15446,142,Larynx,Sham,Cons,Noise,3,5,1,0.667831200000364,1
15447,142,Larynx,Sham,Cons,Noise,4,1,0,0.49592180000036,1
15448,142,Larynx,Sham,Cons,Noise,5,3,1,0.44532669999898605,1
15449,142,Larynx,Sham,Cons,Noise,6,2,0,0.7316105000027159,1
15450,142,Larynx,Sham,Cons,Noise,7,3,0,0.567479800000001,1
15451,142,Larynx,Sham,Cons,Noise,8,5,1,0.422852300001978,1
15452,142,Larynx,Sham,Cons,Noise,9,2,0,0.565076599999884,1
15453,142,Larynx,Sham,Cons,Noise,10,4,1,0.498351000002003,1
15454,142,Larynx,Sham,Cons,Noise,11,5,0,0.41201309999814795,1
15455,142,Larynx,Sham,Cons,Noise,12,2,1,0.6070550000004,1
15456,142,Larynx,Sham,Cons,Noise,13,2,0,0.46341440000105605,1
15457,142,Larynx,Sham,Cons,Noise,14,4,1,0.7120673999997958,1
15458,142,Larynx,Sham,Cons,Noise,15,1,0,0.5315953999997871,1
15459,142,Larynx,Sham,Cons,Noise,16,3,1,0.429291200001899,1
15460,142,Larynx,Sham,Cons,Noise,17,3,0,0.39525309999953595,1
15461,142,Larynx,Sham,Cons,Noise,18,3,1,0.4484436999991889,1
15462,142,Larynx,Sham,Cons,Noise,19,5,0,0.38086530000146,1
15463,142,Larynx,Sham,Cons,Noise,20,2,0,0.723307899999782,1
15464,142,Larynx,Sham,Cons,Noise,21,1,1,0.4229747999997929,1
15465,142,Larynx,Sham,Cons,Noise,22,2,0,0.762383199999022,1
15466,142,Larynx,Sham,Cons,Noise,23,4,1,0.4795359000017921,1
15467,142,Larynx,Sham,Cons,Noise,24,3,0,0.44628549999833894,1
15468,142,Larynx,Sham,Cons,Noise,25,4,1,0.41286269999909603,1
15469,142,Larynx,Sham,Cons,Noise,26,1,0,0.41101390000039795,1
15470,142,Larynx,Sham,Cons,Noise,27,5,1,0.604574799999682,1
15471,142,Larynx,Sham,Cons,Noise,28,1,0,0.510990399998263,1
15472,142,Larynx,Sham,Cons,Noise,29,2,1,0.474407300000166,1
15473,142,Larynx,Sham,Cons,Noise,30,3,0,0.5092948000019529,1
15474,142,Larynx,Sham,Cons,Noise,31,4,1,0.38940139999977,1
15475,142,Larynx,Sham,Cons,Noise,32,3,1,0.6780894000003169,1
15476,142,Larynx,Sham,Cons,Noise,33,1,0,0.605543300000136,1
15477,142,Larynx,Sham,Cons,Noise,34,4,1,0.495715299999574,1
15478,142,Larynx,Sham,Cons,Noise,35,3,0,0.5925868000013,1
15479,142,Larynx,Sham,Cons,Noise,36,2,0,0.8207346000017421,1
15480,142,Larynx,Sham,Cons,Noise,37,3,1,0.547467000000324,1
15481,142,Larynx,Sham,Cons,Noise,38,4,0,0.65349040000001,1
15482,142,Larynx,Sham,Cons,Noise,39,3,0,0.669330299999274,1
15483,142,Larynx,Sham,Cons,Noise,40,4,1,0.5703226999976321,1
15484,142,Larynx,Sham,Cons,Noise,41,2,0,0.546692100000655,1
15485,142,Larynx,Sham,Cons,Noise,42,2,0,0.5965345000004161,1
15486,142,Larynx,Sham,Cons,Noise,43,3,1,0.683833400002186,1
15487,142,Larynx,Sham,Cons,Noise,44,3,1,0.9000979999982521,1
15488,142,Larynx,Sham,Cons,Noise,45,3,1,0.6567939999986271,1
15489,142,Larynx,Sham,Cons,Noise,46,4,1,0.8740210999967529,1
15490,142,Larynx,Sham,Cons,Noise,47,1,0,0.674292200001219,1
15491,142,Larynx,Sham,Cons,Noise,48,1,0,0.8024724999995669,1
15492,142,Larynx,Sham,Cons,Noise,49,2,0,0.6897734999984101,1
15493,142,Larynx,Sham,Cons,Noise,50,2,0,0.6725574999982199,1
15494,142,Larynx,Sham,Cons,Noise,51,4,1,0.7329621999997471,1
15495,142,Larynx,Sham,Cons,Noise,52,5,1,0.8420087000013149,1
15496,142,Larynx,Sham,Cons,Noise,53,5,1,0.756641600000876,1
15497,142,Larynx,Sham,Cons,Noise,54,3,0,0.7447676000010691,1
15498,142,Larynx,Sham,Cons,Noise,55,2,0,0.928237800002535,1
15499,142,Larynx,Sham,Cons,Noise,56,4,1,0.547371399999975,1
15500,142,Larynx,Sham,Cons,Noise,57,1,0,0.8572343999985609,1
15501,142,Larynx,Sham,Cons,Noise,58,1,0,0.657551500000409,1
15502,142,Larynx,Sham,Cons,Noise,59,3,1,0.694905600001221,1
15503,142,Larynx,Sham,Cons,Noise,60,3,0,0.600215400001616,1
15504,142,Larynx,Sham,Cons,Noise,61,2,0,0.752581000000646,1
15505,142,Larynx,Sham,Cons,Noise,62,5,1,0.680973099999392,1
15506,142,Larynx,Sham,Cons,Noise,63,4,0,0.741893999998865,1
15507,142,Larynx,Sham,Cons,Noise,64,5,1,0.647873499998241,1
15508,142,Larynx,Sham,Cons,Noise,65,3,1,0.7577479999999921,1
15509,142,Larynx,Sham,Cons,Noise,66,4,1,0.687604099999589,1
15510,142,Larynx,Sham,Cons,Noise,67,3,1,0.7994092000008101,1
15511,142,Larynx,Sham,Cons,Noise,68,1,0,0.504560100001981,1
15512,142,Larynx,Sham,Cons,Noise,69,5,1,0.657384599999205,1
15513,142,Larynx,Sham,Cons,Noise,70,1,0,0.9748327999986941,1
15514,142,Larynx,Sham,Cons,Noise,71,3,0,0.7352127999984079,1
15515,142,Larynx,Sham,Cons,Noise,72,5,1,0.736258299999463,1
15516,142,Larynx,Sham,Cons,Noise,73,3,0,0.707987799996772,1
15517,142,Larynx,Sham,Cons,Noise,74,3,1,0.613466100003279,1
15518,142,Larynx,Sham,Cons,Noise,75,2,0,0.833362599998509,1
15519,142,Larynx,Sham,Cons,Noise,76,4,1,0.844083699998009,1
15520,142,Larynx,Sham,Cons,Noise,77,2,1,0.8293058000017479,1
15521,142,Larynx,Sham,Cons,Noise,78,4,1,0.71311059999789,1
15522,142,Larynx,Sham,Cons,Noise,79,2,0,0.8967322999997122,1
15523,142,Larynx,Sham,Cons,Noise,80,3,1,0.6115954000015339,1
15524,142,Larynx,Sham,Cons,Noise,81,5,1,0.7282545999987629,1
15525,142,Larynx,Sham,Cons,Noise,82,4,1,0.698184299999411,1
15526,142,Larynx,Sham,Cons,Noise,83,1,0,0.664095500000258,1
15527,142,Larynx,Sham,Cons,Noise,84,2,1,0.658355600000505,1
15528,142,Larynx,Sham,Cons,Noise,85,5,1,0.734724400001141,1
15529,142,Larynx,Sham,Cons,Noise,86,1,0,0.7284523999987871,1
15530,142,Larynx,Sham,Cons,Noise,87,3,1,0.6321434999990739,1
15531,142,Larynx,Sham,Cons,Noise,88,1,0,0.774404000003415,1
15532,142,Larynx,Sham,Cons,Noise,89,3,0,0.8122800999990429,1
15533,142,Larynx,Sham,Cons,Noise,90,1,0,0.633385900000576,1
15534,142,Larynx,Sham,Cons,Noise,91,4,1,0.6245066999981651,1
15535,142,Larynx,Sham,Cons,Noise,92,5,1,0.6531709000009871,1
15536,142,Larynx,Sham,Cons,Noise,93,4,1,0.678112800000235,1
15537,142,Larynx,Sham,Cons,Noise,94,4,1,0.909543800000392,1
15538,142,Larynx,Sham,Cons,Noise,95,5,1,0.8260626000010229,1
15539,142,Larynx,Sham,Cons,Noise,96,2,0,0.646183599998039,1
15540,142,Larynx,Sham,Cons,Noise,97,2,1,0.7944453999989491,1
15541,142,Larynx,Sham,Cons,Noise,98,5,1,0.9437459000000671,1
15542,142,Larynx,Sham,Cons,Noise,99,3,1,0.653730999998515,1
15543,142,Larynx,Sham,Cons,Noise,100,3,1,0.9755485000023331,1
15544,142,Larynx,Sham,Cons,Noise,101,4,1,0.6750428000013929,1
15545,142,Larynx,Sham,Cons,Noise,102,2,0,0.638468900000589,1
15546,142,Larynx,Sham,Cons,Noise,103,2,0,0.624313699998311,1
15547,142,Larynx,Sham,Cons,Noise,104,1,0,0.6990216000012879,1
15548,142,Larynx,Sham,Cons,Noise,105,4,1,0.636636700000963,1
15549,142,Larynx,Sham,Cons,Noise,106,3,1,0.639819399999396,1
15550,142,Larynx,Sham,Cons,Noise,107,3,1,0.6053657999982529,1
15551,142,Larynx,Sham,Cons,Noise,108,3,1,0.6438454000017371,1
15552,142,Larynx,Sham,Cons,Noise,109,4,1,0.616952700002003,1
15553,142,Larynx,Sham,Cons,Noise,110,5,1,0.6544766999977579,1
15554,142,Larynx,Sham,Cons,Noise,111,2,1,0.70037560000128,1
15555,142,Larynx,Sham,Cons,Noise,112,2,0,0.46981550000055,1
15556,142,Larynx,Sham,Cons,Noise,113,3,1,0.620441899998696,1
15557,142,Larynx,Sham,Cons,Noise,114,3,0,0.54395089999889,1
15558,142,Larynx,Sham,Cons,Noise,115,3,1,0.49395139999978704,1
15559,142,Larynx,Sham,Cons,Noise,116,1,0,0.48032519999833295,1
15560,142,Larynx,Sham,Cons,Noise,117,4,1,0.445904799998971,1
15561,142,Larynx,Sham,Cons,Noise,118,2,0,0.394790600003034,1
15562,142,Larynx,Sham,Cons,Noise,119,4,1,0.6186481000004279,1
15563,142,Larynx,Sham,Cons,Noise,120,2,0,0.5722534999986241,1
15564,142,Larynx,Sham,Cons,Noise,121,3,1,0.7195009000024579,1
15565,142,Larynx,Sham,Cons,Noise,122,2,0,0.37894779999987793,1
15566,142,Larynx,Sham,Cons,Noise,123,5,1,0.624508600001718,1
15567,142,Larynx,Sham,Cons,Noise,124,3,1,0.8833770000019291,1
15568,142,Larynx,Sham,Cons,Noise,125,5,1,0.8547828000009761,1
15569,142,Larynx,Sham,Cons,Noise,126,4,1,0.5823392999991479,1
15570,142,Larynx,Sham,Cons,Noise,127,4,1,0.612279599998146,1
15571,142,Larynx,Sham,Cons,Noise,128,1,0,0.6860588999988979,1
15572,142,Larynx,Sham,Cons,Noise,129,3,1,0.753808400000707,1
15573,142,Larynx,Sham,Cons,Noise,130,5,0,0.42110719999982393,1
15574,142,Larynx,Sham,Cons,Noise,131,4,1,0.9033810000000809,1
15575,142,Larynx,Sham,Cons,Noise,132,2,0,1.1545927000006497,1
15576,142,Larynx,Sham,Cons,Noise,133,3,1,0.682365799999388,1
15577,142,Larynx,Sham,Cons,Noise,134,2,0,0.735612300002686,1
15578,142,Larynx,Sham,Cons,Noise,135,5,1,0.7487062000000151,1
15579,142,Larynx,Sham,Cons,Noise,136,3,0,1.04528209999989,1
15580,142,Larynx,Sham,Cons,Noise,137,3,1,0.6054064999989351,1
15581,142,Larynx,Sham,Cons,Noise,138,2,0,0.73500299999796,1
15582,142,Larynx,Sham,Cons,Noise,139,1,0,0.8431302999997571,1
15583,142,Larynx,Sham,Cons,Noise,140,4,1,0.5556201999970649,1
15584,142,Larynx,Sham,Cons,Noise,141,1,1,1.05815710000024,1
15585,142,Larynx,Sham,Cons,Noise,142,3,0,0.742039299999306,1
15586,142,Larynx,Sham,Cons,Noise,143,4,1,0.695381099998485,1
15587,142,Larynx,Sham,Cons,Noise,144,4,1,0.8540538999986892,1
15588,142,Larynx,Sham,Cons,Noise,145,1,1,0.6954746999981579,1
15589,142,Larynx,Sham,Cons,Noise,146,2,0,0.82590429999982,1
15590,142,Larynx,Sham,Cons,Noise,147,3,0,0.7611985000003191,1
15591,142,Larynx,Sham,Cons,Noise,148,5,1,0.612771899999643,1
15592,142,Larynx,Sham,Cons,Noise,149,4,1,0.7279385999972869,1
15593,142,Larynx,Sham,Cons,Noise,150,5,1,0.64741629999844,1
15594,142,Larynx,Sham,Cons,Noise,151,3,0,0.6094019999982271,1
15595,142,Larynx,Sham,Cons,Noise,152,2,0,0.79682590000084,1
15596,142,Larynx,Sham,Cons,Noise,153,3,1,0.5204978000001571,1
15597,142,Larynx,Sham,Cons,Noise,154,3,1,0.742331700002978,1
15598,142,Larynx,Sham,Cons,Noise,155,1,0,0.5865603999991441,1
15599,142,Larynx,Sham,Cons,Noise,156,1,0,0.926279199997225,1
17316,201,Larynx,Right iTBS,Cons,Noise,1,3,1,1.09715069993399,1
17317,201,Larynx,Right iTBS,Cons,Noise,2,4,1,0.7403857000172142,1
17318,201,Larynx,Right iTBS,Cons,Noise,3,4,1,0.837243700050749,1
17319,201,Larynx,Right iTBS,Cons,Noise,4,5,1,1.01719320006669,1
17320,201,Larynx,Right iTBS,Cons,Noise,5,4,1,0.9328894000500441,1
17321,201,Larynx,Right iTBS,Cons,Noise,6,4,1,1.0145262000150999,1
17322,201,Larynx,Right iTBS,Cons,Noise,7,5,1,0.9664885000092909,1
17323,201,Larynx,Right iTBS,Cons,Noise,8,5,1,0.8201408999739209,1
17324,201,Larynx,Right iTBS,Cons,Noise,9,1,0,0.7396031999960541,1
17325,201,Larynx,Right iTBS,Cons,Noise,10,3,0,0.798829599982128,1
17326,201,Larynx,Right iTBS,Cons,Noise,11,5,0,0.7738846999127421,1
17327,201,Larynx,Right iTBS,Cons,Noise,12,2,0,0.785349799902178,1
17328,201,Larynx,Right iTBS,Cons,Noise,13,3,1,0.7387925999937579,1
17329,201,Larynx,Right iTBS,Cons,Noise,14,1,0,0.636347800027579,1
17330,201,Larynx,Right iTBS,Cons,Noise,15,1,0,0.6549252000404521,1
17331,201,Larynx,Right iTBS,Cons,Noise,16,2,0,0.6687809000723061,1
17332,201,Larynx,Right iTBS,Cons,Noise,17,3,1,0.7821863999124621,1
17333,201,Larynx,Right iTBS,Cons,Noise,18,1,0,0.7387900999747221,1
17334,201,Larynx,Right iTBS,Cons,Noise,19,3,1,0.753929300000891,1
17335,201,Larynx,Right iTBS,Cons,Noise,20,3,0,0.7097338000312451,1
17336,201,Larynx,Right iTBS,Cons,Noise,21,3,0,0.7269831000594421,1
17337,201,Larynx,Right iTBS,Cons,Noise,22,4,1,0.720030199969187,1
17338,201,Larynx,Right iTBS,Cons,Noise,23,4,1,0.662551999907009,1
17339,201,Larynx,Right iTBS,Cons,Noise,24,5,1,0.644500699942,1
17340,201,Larynx,Right iTBS,Cons,Noise,25,3,1,0.7820127999875691,1
17341,201,Larynx,Right iTBS,Cons,Noise,26,3,1,0.7864143999759109,1
