,subj_idx,group_idx,turn_type,task_type,snr_type,trial_num,step_att,response,rt,step_unatnd
2184,55,Larynx,Right cTBS,Tone,Noise,1,2,1,3.1132897999923395,1
2185,55,Larynx,Right cTBS,Tone,Noise,2,3,1,2.09520700000576,1
2186,55,Larynx,Right cTBS,Tone,Noise,3,5,1,0.891557599999942,1
2187,55,Larynx,Right cTBS,Tone,Noise,4,5,1,0.778836800003774,1
2188,55,Larynx,Right cTBS,Tone,Noise,5,2,0,1.4912554999900702,1
2189,55,Larynx,Right cTBS,Tone,Noise,6,4,1,1.11576729999797,1
2190,55,Larynx,Right cTBS,Tone,Noise,7,1,0,1.09284510000725,1
2191,55,Larynx,Right cTBS,Tone,Noise,8,2,1,0.7534022000036199,1
2192,55,Larynx,Right cTBS,Tone,Noise,9,3,0,1.1963470000046101,1
2193,55,Larynx,Right cTBS,Tone,Noise,10,3,0,0.818410099993343,1
2194,55,Larynx,Right cTBS,Tone,Noise,11,1,1,0.769423699995968,1
2195,55,Larynx,Right cTBS,Tone,Noise,12,4,0,0.686369500006549,1
2196,55,Larynx,Right cTBS,Tone,Noise,13,3,0,0.5943120000010821,1
2197,55,Larynx,Right cTBS,Tone,Noise,14,3,0,0.38161489999038206,1
2198,55,Larynx,Right cTBS,Tone,Noise,15,1,0,0.365118100002292,1
2199,55,Larynx,Right cTBS,Tone,Noise,16,2,0,0.38566100000753095,1
2200,55,Larynx,Right cTBS,Tone,Noise,17,3,1,1.0244609999936098,1
2201,55,Larynx,Right cTBS,Tone,Noise,18,5,0,0.51471180000226,1
2202,55,Larynx,Right cTBS,Tone,Noise,19,5,0,0.449058999991394,1
2203,55,Larynx,Right cTBS,Tone,Noise,20,3,0,0.530553799995687,1
2204,55,Larynx,Right cTBS,Tone,Noise,21,4,0,1.04749789999914,1
2205,55,Larynx,Right cTBS,Tone,Noise,22,1,0,3.2972065000067206,1
2206,55,Larynx,Right cTBS,Tone,Noise,23,3,1,1.76330799999414,1
2207,55,Larynx,Right cTBS,Tone,Noise,24,5,1,0.67063190000772,1
2208,55,Larynx,Right cTBS,Tone,Noise,25,2,1,2.5557822999981,1
2209,55,Larynx,Right cTBS,Tone,Noise,26,3,1,1.05820809998841,1
2210,55,Larynx,Right cTBS,Tone,Noise,27,4,1,0.7935632000007901,1
2211,55,Larynx,Right cTBS,Tone,Noise,28,2,1,0.98434380000981,1
2212,55,Larynx,Right cTBS,Tone,Noise,29,4,1,1.4830592999933299,1
2213,55,Larynx,Right cTBS,Tone,Noise,30,4,1,0.9145080000016609,1
2214,55,Larynx,Right cTBS,Tone,Noise,31,3,1,0.653492400000687,1
2215,55,Larynx,Right cTBS,Tone,Noise,32,4,1,0.8049220000102649,1
2216,55,Larynx,Right cTBS,Tone,Noise,33,5,0,1.0382209999952499,1
2217,55,Larynx,Right cTBS,Tone,Noise,34,1,1,1.86637189998874,1
2218,55,Larynx,Right cTBS,Tone,Noise,35,4,1,1.7893370000092501,1
2219,55,Larynx,Right cTBS,Tone,Noise,36,2,1,2.0825530999864,1
2220,55,Larynx,Right cTBS,Tone,Noise,37,2,1,1.22406390000833,1
2221,55,Larynx,Right cTBS,Tone,Noise,38,3,1,1.02080199999909,1
2222,55,Larynx,Right cTBS,Tone,Noise,39,1,1,0.6944650999939771,1
2223,55,Larynx,Right cTBS,Tone,Noise,40,3,0,1.22473380000156,1
2224,55,Larynx,Right cTBS,Tone,Noise,41,3,0,0.8792268000106558,1
2225,55,Larynx,Right cTBS,Tone,Noise,42,5,1,1.15844509999442,1
2226,55,Larynx,Right cTBS,Tone,Noise,43,1,1,1.17327869999281,1
2227,55,Larynx,Right cTBS,Tone,Noise,44,2,1,0.800187600005302,1
2228,55,Larynx,Right cTBS,Tone,Noise,45,3,1,0.743690200004494,1
2229,55,Larynx,Right cTBS,Tone,Noise,46,2,1,2.3459341999987404,1
2230,55,Larynx,Right cTBS,Tone,Noise,47,2,0,1.61805269999604,1
2231,55,Larynx,Right cTBS,Tone,Noise,48,5,1,1.65556990000186,1
2232,55,Larynx,Right cTBS,Tone,Noise,49,4,1,1.1778639999975,1
2233,55,Larynx,Right cTBS,Tone,Noise,50,5,1,1.1874171999952499,1
2234,55,Larynx,Right cTBS,Tone,Noise,51,1,1,1.0339313000004,1
2235,55,Larynx,Right cTBS,Tone,Noise,52,1,1,0.8390668000065491,1
2236,55,Larynx,Right cTBS,Tone,Noise,53,4,1,0.9676219000102719,1
2237,55,Larynx,Right cTBS,Tone,Noise,54,5,1,2.28074459999334,1
2238,55,Larynx,Right cTBS,Tone,Noise,55,2,1,1.2021698000025902,1
2239,55,Larynx,Right cTBS,Tone,Noise,56,4,1,1.4302205999992998,1
2240,55,Larynx,Right cTBS,Tone,Noise,57,4,1,0.8030406999896509,1
2241,55,Larynx,Right cTBS,Tone,Noise,58,3,1,0.772191299998667,1
2242,55,Larynx,Right cTBS,Tone,Noise,59,3,1,1.04231600000639,1
2243,55,Larynx,Right cTBS,Tone,Noise,60,2,1,0.7556210999900942,1
2244,55,Larynx,Right cTBS,Tone,Noise,61,1,0,0.698436599996057,1
2245,55,Larynx,Right cTBS,Tone,Noise,62,4,1,1.79944760000217,1
2246,55,Larynx,Right cTBS,Tone,Noise,63,3,1,0.725677599999472,1
2247,55,Larynx,Right cTBS,Tone,Noise,64,3,1,0.683660800001235,1
2248,55,Larynx,Right cTBS,Tone,Noise,65,3,1,0.8362606000009691,1
2249,55,Larynx,Right cTBS,Tone,Noise,66,1,1,0.737170299995341,1
2250,55,Larynx,Right cTBS,Tone,Noise,67,5,1,1.30947649999871,1
2251,55,Larynx,Right cTBS,Tone,Noise,68,2,0,0.6073487000103339,1
2252,55,Larynx,Right cTBS,Tone,Noise,69,4,1,0.61444649999612,1
2253,55,Larynx,Right cTBS,Tone,Noise,70,2,0,0.5123739999980901,1
2254,55,Larynx,Right cTBS,Tone,Noise,71,3,1,1.2623301000130602,1
2255,55,Larynx,Right cTBS,Tone,Noise,72,3,0,0.626008300008834,1
2256,55,Larynx,Right cTBS,Tone,Noise,73,2,1,0.9771953000017671,1
2257,55,Larynx,Right cTBS,Tone,Noise,74,4,0,0.865483000001404,1
2258,55,Larynx,Right cTBS,Tone,Noise,75,3,0,0.6973190999997309,1
2259,55,Larynx,Right cTBS,Tone,Noise,76,5,0,0.551178499998059,1
2260,55,Larynx,Right cTBS,Tone,Noise,77,1,1,0.7913140000018759,1
2261,55,Larynx,Right cTBS,Tone,Noise,78,4,0,0.63757489999989,1
2262,55,Larynx,Right cTBS,Tone,Noise,79,5,0,0.5462202999915461,1
2263,55,Larynx,Right cTBS,Tone,Noise,80,3,0,0.511328200009302,1
2264,55,Larynx,Right cTBS,Tone,Noise,81,3,0,0.535336700006155,1
2265,55,Larynx,Right cTBS,Tone,Noise,82,4,0,0.43180899998697,1
2266,55,Larynx,Right cTBS,Tone,Noise,83,3,0,0.0327802999963751,1
2267,55,Larynx,Right cTBS,Tone,Noise,84,4,0,0.000247000003582798,1
2268,55,Larynx,Right cTBS,Tone,Noise,85,1,0,2.13889719999861,1
2269,55,Larynx,Right cTBS,Tone,Noise,86,3,0,1.4883704999956497,1
2270,55,Larynx,Right cTBS,Tone,Noise,87,2,0,1.38082310000027,1
2271,55,Larynx,Right cTBS,Tone,Noise,88,1,0,1.4954337000090199,1
2272,55,Larynx,Right cTBS,Tone,Noise,89,4,0,1.32729650000692,1
2273,55,Larynx,Right cTBS,Tone,Noise,90,3,0,1.4322734000015802,1
2274,55,Larynx,Right cTBS,Tone,Noise,91,3,0,1.2746253999939698,1
2275,55,Larynx,Right cTBS,Tone,Noise,92,1,0,1.19846479999251,1
2276,55,Larynx,Right cTBS,Tone,Noise,93,5,0,0.999472800001968,1
2277,55,Larynx,Right cTBS,Tone,Noise,94,2,0,1.91188429998874,1
2278,55,Larynx,Right cTBS,Tone,Noise,95,1,0,1.7123890000075301,1
2279,55,Larynx,Right cTBS,Tone,Noise,96,4,0,0.930127300001914,1
2280,55,Larynx,Right cTBS,Tone,Noise,97,4,0,0.720172899993486,1
2281,55,Larynx,Right cTBS,Tone,Noise,98,2,0,0.699988399996073,1
2282,55,Larynx,Right cTBS,Tone,Noise,99,2,0,0.774484800000209,1
2283,55,Larynx,Right cTBS,Tone,Noise,100,4,0,1.50985890001175,1
2284,55,Larynx,Right cTBS,Tone,Noise,101,3,1,1.4729776000022,1
2285,55,Larynx,Right cTBS,Tone,Noise,102,2,0,0.9042964999971451,1
2286,55,Larynx,Right cTBS,Tone,Noise,103,3,1,1.18010890000733,1
2287,55,Larynx,Right cTBS,Tone,Noise,104,3,0,0.8248278999963079,1
2288,55,Larynx,Right cTBS,Tone,Noise,105,5,1,0.9916666000062829,1
2289,55,Larynx,Right cTBS,Tone,Noise,106,2,1,1.14943750000384,1
2290,55,Larynx,Right cTBS,Tone,Noise,107,2,0,0.798382799999672,1
2291,55,Larynx,Right cTBS,Tone,Noise,108,4,0,2.6811192999885,1
2292,55,Larynx,Right cTBS,Tone,Noise,109,5,0,1.1437066000071399,1
2293,55,Larynx,Right cTBS,Tone,Noise,110,1,0,0.751816699994379,1
2294,55,Larynx,Right cTBS,Tone,Noise,111,5,0,0.664502600004198,1
2295,55,Larynx,Right cTBS,Tone,Noise,112,1,0,0.7298161000071558,1
2296,55,Larynx,Right cTBS,Tone,Noise,113,4,0,0.771686599997338,1
2297,55,Larynx,Right cTBS,Tone,Noise,114,3,1,2.6343247000040697,1
2298,55,Larynx,Right cTBS,Tone,Noise,115,2,0,0.6186225000128621,1
2299,55,Larynx,Right cTBS,Tone,Noise,116,3,0,0.5044372999982439,1
2300,55,Larynx,Right cTBS,Tone,Noise,117,5,0,0.4235277999978279,1
2301,55,Larynx,Right cTBS,Tone,Noise,118,4,0,1.55904730000475,1
2302,55,Larynx,Right cTBS,Tone,Noise,119,5,0,1.13242329999048,1
2303,55,Larynx,Right cTBS,Tone,Noise,120,2,0,0.81121770000027,1
2304,55,Larynx,Right cTBS,Tone,Noise,121,3,1,0.9853537000017241,1
2305,55,Larynx,Right cTBS,Tone,Noise,122,4,1,3.8242559000063903,1
2306,55,Larynx,Right cTBS,Tone,Noise,123,4,0,0.767865499990876,1
2307,55,Larynx,Right cTBS,Tone,Noise,124,2,0,0.8757152000034691,1
2308,55,Larynx,Right cTBS,Tone,Noise,125,2,1,1.0209268000035099,1
2309,55,Larynx,Right cTBS,Tone,Noise,126,3,0,0.7147464000008771,1
2310,55,Larynx,Right cTBS,Tone,Noise,127,5,1,0.86248070000147,1
2311,55,Larynx,Right cTBS,Tone,Noise,128,1,0,0.7819015999994008,1
2312,55,Larynx,Right cTBS,Tone,Noise,129,4,0,0.7579182000044971,1
2313,55,Larynx,Right cTBS,Tone,Noise,130,3,0,0.70321469999908,1
2314,55,Larynx,Right cTBS,Tone,Noise,131,1,0,0.686282399998163,1
2315,55,Larynx,Right cTBS,Tone,Noise,132,3,0,0.612994800001616,1
2316,55,Larynx,Right cTBS,Tone,Noise,133,3,0,0.768875000008848,1
2317,55,Larynx,Right cTBS,Tone,Noise,134,1,1,1.18569569999818,1
2318,55,Larynx,Right cTBS,Tone,Noise,135,2,0,1.98627180000767,1
2319,55,Larynx,Right cTBS,Tone,Noise,136,5,1,1.15641969999706,1
2320,55,Larynx,Right cTBS,Tone,Noise,137,5,0,0.711749499998405,1
2321,55,Larynx,Right cTBS,Tone,Noise,138,4,0,0.665286400006153,1
2322,55,Larynx,Right cTBS,Tone,Noise,139,3,0,2.05670790000295,1
2323,55,Larynx,Right cTBS,Tone,Noise,140,3,0,1.7233884999877802,1
2324,55,Larynx,Right cTBS,Tone,Noise,141,5,1,1.45064909999201,1
2325,55,Larynx,Right cTBS,Tone,Noise,142,4,0,0.6961905000061961,1
2326,55,Larynx,Right cTBS,Tone,Noise,143,3,0,2.5779104999965097,1
2327,55,Larynx,Right cTBS,Tone,Noise,144,2,0,1.3197017999918899,1
2328,55,Larynx,Right cTBS,Tone,Noise,145,4,0,1.1798092999961203,1
2329,55,Larynx,Right cTBS,Tone,Noise,146,1,0,0.9610879999963801,1
2330,55,Larynx,Right cTBS,Tone,Noise,147,1,0,0.9092461999971421,1
2331,55,Larynx,Right cTBS,Tone,Noise,148,3,0,1.6542897000035701,1
2332,55,Larynx,Right cTBS,Tone,Noise,149,2,0,2.31365589999768,1
2333,55,Larynx,Right cTBS,Tone,Noise,150,1,0,0.703202900011092,1
2334,55,Larynx,Right cTBS,Tone,Noise,151,5,0,0.7551706999947779,1
2335,55,Larynx,Right cTBS,Tone,Noise,152,2,0,0.687221700005466,1
2336,55,Larynx,Right cTBS,Tone,Noise,153,4,0,1.1237516999972301,1
2337,55,Larynx,Right cTBS,Tone,Noise,154,3,0,0.690548800004763,1
2338,55,Larynx,Right cTBS,Tone,Noise,155,3,0,1.99887789999775,1
2339,55,Larynx,Right cTBS,Tone,Noise,156,2,0,1.0746022999956,1
2808,55,Larynx,Sham,Tone,Noise,1,3,1,2.01130639994517,1
2809,55,Larynx,Sham,Tone,Noise,2,1,1,1.08731140010059,1
2810,55,Larynx,Sham,Tone,Noise,3,3,1,1.09449879999738,1
2811,55,Larynx,Sham,Tone,Noise,4,5,0,1.21376499999315,1
2812,55,Larynx,Sham,Tone,Noise,5,2,1,0.690343399997801,1
2813,55,Larynx,Sham,Tone,Noise,6,1,1,0.5122652000281961,1
2814,55,Larynx,Sham,Tone,Noise,7,5,1,0.4605447999201721,1
2815,55,Larynx,Sham,Tone,Noise,8,1,0,0.539366599987261,1
2816,55,Larynx,Sham,Tone,Noise,9,1,1,0.503369799931534,1
2817,55,Larynx,Sham,Tone,Noise,10,3,1,0.538616199977696,1
2818,55,Larynx,Sham,Tone,Noise,11,1,1,0.49804069998208395,1
2819,55,Larynx,Sham,Tone,Noise,12,2,0,0.5991795000154531,1
2820,55,Larynx,Sham,Tone,Noise,13,2,0,0.7082104000728578,1
2821,55,Larynx,Sham,Tone,Noise,14,3,0,0.542668999987654,1
2822,55,Larynx,Sham,Tone,Noise,15,5,1,1.39201419998426,1
2823,55,Larynx,Sham,Tone,Noise,16,3,0,0.9726902000838891,1
2824,55,Larynx,Sham,Tone,Noise,17,3,0,1.05398490000516,1
2825,55,Larynx,Sham,Tone,Noise,18,4,0,0.7130913001019509,1
2826,55,Larynx,Sham,Tone,Noise,19,3,0,1.29794129997026,1
2827,55,Larynx,Sham,Tone,Noise,20,4,0,2.10636520001572,1
2828,55,Larynx,Sham,Tone,Noise,21,2,0,1.86154409998562,1
2829,55,Larynx,Sham,Tone,Noise,22,5,0,1.3756670999573501,1
2830,55,Larynx,Sham,Tone,Noise,23,2,1,1.29942289995961,1
2831,55,Larynx,Sham,Tone,Noise,24,5,1,1.39714490005281,1
2832,55,Larynx,Sham,Tone,Noise,25,5,0,1.33102599997073,1
2833,55,Larynx,Sham,Tone,Noise,26,4,0,1.35505680006463,1
2834,55,Larynx,Sham,Tone,Noise,27,4,1,1.22955020004883,1
2835,55,Larynx,Sham,Tone,Noise,28,3,0,0.6117222999455411,1
2836,55,Larynx,Sham,Tone,Noise,29,4,0,0.819820699980482,1
2837,55,Larynx,Sham,Tone,Noise,30,2,0,0.714727999991737,1
2838,55,Larynx,Sham,Tone,Noise,31,3,1,1.0259114000946299,1
2839,55,Larynx,Sham,Tone,Noise,32,4,0,0.7935035999398679,1
2840,55,Larynx,Sham,Tone,Noise,33,4,0,0.605571900028735,1
2841,55,Larynx,Sham,Tone,Noise,34,4,0,0.641479499987327,1
2842,55,Larynx,Sham,Tone,Noise,35,3,1,0.819499099976383,1
2843,55,Larynx,Sham,Tone,Noise,36,2,0,0.643667399999686,1
2844,55,Larynx,Sham,Tone,Noise,37,2,0,1.0897437999956299,1
2845,55,Larynx,Sham,Tone,Noise,38,3,0,0.6135700000450021,1
2846,55,Larynx,Sham,Tone,Noise,39,1,1,1.92114989995025,1
2847,55,Larynx,Sham,Tone,Noise,40,2,0,1.16850400005933,1
2848,55,Larynx,Sham,Tone,Noise,41,3,0,0.889654199942015,1
2849,55,Larynx,Sham,Tone,Noise,42,1,0,0.666969900019467,1
2850,55,Larynx,Sham,Tone,Noise,43,4,0,0.76637819991447,1
2851,55,Larynx,Sham,Tone,Noise,44,3,0,0.6602273000171409,1
2852,55,Larynx,Sham,Tone,Noise,45,3,0,1.26705349993426,1
2853,55,Larynx,Sham,Tone,Noise,46,1,0,0.659541300032288,1
2854,55,Larynx,Sham,Tone,Noise,47,4,0,0.6890340000391011,1
2855,55,Larynx,Sham,Tone,Noise,48,5,0,0.666303799953312,1
2856,55,Larynx,Sham,Tone,Noise,49,2,0,1.32056439993903,1
2857,55,Larynx,Sham,Tone,Noise,50,3,0,1.57801479997579,1
2858,55,Larynx,Sham,Tone,Noise,51,2,0,2.6240682998905,1
2859,55,Larynx,Sham,Tone,Noise,52,4,0,1.39617720001843,1
2860,55,Larynx,Sham,Tone,Noise,53,3,1,1.3979766999837,1
2861,55,Larynx,Sham,Tone,Noise,54,3,0,0.6823830999201159,1
2862,55,Larynx,Sham,Tone,Noise,55,5,1,1.2742736999644,1
2863,55,Larynx,Sham,Tone,Noise,56,3,0,0.666897999937646,1
2864,55,Larynx,Sham,Tone,Noise,57,2,0,0.824394700000994,1
2865,55,Larynx,Sham,Tone,Noise,58,1,0,0.859792500035837,1
2866,55,Larynx,Sham,Tone,Noise,59,2,0,0.7347166000399742,1
2867,55,Larynx,Sham,Tone,Noise,60,4,1,0.9477657999377701,1
2868,55,Larynx,Sham,Tone,Noise,61,3,0,2.47081129997969,1
2869,55,Larynx,Sham,Tone,Noise,62,5,0,0.7835535000776871,1
2870,55,Larynx,Sham,Tone,Noise,63,4,1,0.911370099987835,1
2871,55,Larynx,Sham,Tone,Noise,64,3,0,2.37796020007227,1
2872,55,Larynx,Sham,Tone,Noise,65,1,0,1.33781689999159,1
2873,55,Larynx,Sham,Tone,Noise,66,2,0,0.904237400041893,1
2874,55,Larynx,Sham,Tone,Noise,67,5,1,1.2183247000211899,1
2875,55,Larynx,Sham,Tone,Noise,68,3,0,0.66141050006263,1
2876,55,Larynx,Sham,Tone,Noise,69,5,0,0.696390900062397,1
2877,55,Larynx,Sham,Tone,Noise,70,4,0,0.894281500019133,1
2878,55,Larynx,Sham,Tone,Noise,71,5,0,2.15019169996958,1
2879,55,Larynx,Sham,Tone,Noise,72,4,0,1.02427069994155,1
2880,55,Larynx,Sham,Tone,Noise,73,1,0,0.767642999999225,1
2881,55,Larynx,Sham,Tone,Noise,74,3,0,0.803426699945703,1
2882,55,Larynx,Sham,Tone,Noise,75,1,1,0.799302899977192,1
2883,55,Larynx,Sham,Tone,Noise,76,2,0,0.6084718999918549,1
2884,55,Larynx,Sham,Tone,Noise,77,2,0,0.5994260000297801,1
2885,55,Larynx,Sham,Tone,Noise,78,4,0,1.30318470008206,1
2886,55,Larynx,Sham,Tone,Noise,79,1,1,0.874947699951008,1
2887,55,Larynx,Sham,Tone,Noise,80,3,0,1.03125549992546,1
2888,55,Larynx,Sham,Tone,Noise,81,3,0,0.647829400026239,1
2889,55,Larynx,Sham,Tone,Noise,82,1,0,0.582961500040255,1
2890,55,Larynx,Sham,Tone,Noise,83,3,1,0.746274200035259,1
2891,55,Larynx,Sham,Tone,Noise,84,2,1,1.37500560004264,1
2892,55,Larynx,Sham,Tone,Noise,85,5,0,0.940070900018327,1
2893,55,Larynx,Sham,Tone,Noise,86,3,0,1.5682862000539899,1
2894,55,Larynx,Sham,Tone,Noise,87,2,0,1.03650249994826,1
2895,55,Larynx,Sham,Tone,Noise,88,1,0,0.8331051000859592,1
2896,55,Larynx,Sham,Tone,Noise,89,4,0,0.7592271999455992,1
2897,55,Larynx,Sham,Tone,Noise,90,5,1,1.9063662000698998,1
2898,55,Larynx,Sham,Tone,Noise,91,4,0,0.93473819992505,1
2899,55,Larynx,Sham,Tone,Noise,92,3,0,0.7947772999759759,1
2900,55,Larynx,Sham,Tone,Noise,93,2,0,0.7748002000153059,1
2901,55,Larynx,Sham,Tone,Noise,94,5,1,0.7967997998930509,1
2902,55,Larynx,Sham,Tone,Noise,95,4,0,1.13933170004748,1
2903,55,Larynx,Sham,Tone,Noise,96,2,0,1.01399740006309,1
2904,55,Larynx,Sham,Tone,Noise,97,3,0,0.8269631000002851,1
2905,55,Larynx,Sham,Tone,Noise,98,2,1,1.11674520000815,1
2906,55,Larynx,Sham,Tone,Noise,99,1,0,0.646881200023927,1
2907,55,Larynx,Sham,Tone,Noise,100,2,0,0.671365599962883,1
2908,55,Larynx,Sham,Tone,Noise,101,4,0,0.8319058999186378,1
2909,55,Larynx,Sham,Tone,Noise,102,1,1,1.1726701000006898,1
2910,55,Larynx,Sham,Tone,Noise,103,4,0,0.836186600034125,1
2911,55,Larynx,Sham,Tone,Noise,104,4,0,0.937334499903955,1
2912,55,Larynx,Sham,Tone,Noise,105,2,0,0.75486829993315,1
2913,55,Larynx,Sham,Tone,Noise,106,3,1,2.17475509992801,1
2914,55,Larynx,Sham,Tone,Noise,107,5,0,0.784327999921516,1
2915,55,Larynx,Sham,Tone,Noise,108,2,1,1.03185230004601,1
2916,55,Larynx,Sham,Tone,Noise,109,5,1,0.7738280999474231,1
2917,55,Larynx,Sham,Tone,Noise,110,3,1,1.2578189000487299,1
2918,55,Larynx,Sham,Tone,Noise,111,5,0,1.3489857999375099,1
2919,55,Larynx,Sham,Tone,Noise,112,3,1,1.17792339995503,1
2920,55,Larynx,Sham,Tone,Noise,113,4,0,0.6929340000497181,1
2921,55,Larynx,Sham,Tone,Noise,114,4,0,0.7341013000113891,1
2922,55,Larynx,Sham,Tone,Noise,115,3,0,0.708226300077513,1
2923,55,Larynx,Sham,Tone,Noise,116,1,0,1.1567135999212,1
2924,55,Larynx,Sham,Tone,Noise,117,3,0,1.27742150006816,1
2925,55,Larynx,Sham,Tone,Noise,118,2,0,0.7740784999914471,1
2926,55,Larynx,Sham,Tone,Noise,119,3,0,0.761539199971594,1
2927,55,Larynx,Sham,Tone,Noise,120,1,1,0.8878500999417159,1
2928,55,Larynx,Sham,Tone,Noise,121,5,1,1.07813229993917,1
2929,55,Larynx,Sham,Tone,Noise,122,5,0,0.750248200027272,1
2930,55,Larynx,Sham,Tone,Noise,123,2,0,1.14305369998328,1
2931,55,Larynx,Sham,Tone,Noise,124,2,1,1.11040440003853,1
2932,55,Larynx,Sham,Tone,Noise,125,4,1,1.1555806000251299,1
2933,55,Larynx,Sham,Tone,Noise,126,4,1,0.7608957999618721,1
2934,55,Larynx,Sham,Tone,Noise,127,2,1,0.53100540000014,1
2935,55,Larynx,Sham,Tone,Noise,128,2,1,1.3790906999493,1
2936,55,Larynx,Sham,Tone,Noise,129,4,1,0.844286500010639,1
2937,55,Larynx,Sham,Tone,Noise,130,3,1,0.788289800053462,1
2938,55,Larynx,Sham,Tone,Noise,131,1,1,1.7608363999752301,1
2939,55,Larynx,Sham,Tone,Noise,132,2,1,2.04751319997013,1
2940,55,Larynx,Sham,Tone,Noise,133,3,0,0.9074457000242551,1
2941,55,Larynx,Sham,Tone,Noise,134,3,1,1.01146459998563,1
2942,55,Larynx,Sham,Tone,Noise,135,4,1,0.680207299999893,1
2943,55,Larynx,Sham,Tone,Noise,136,3,1,0.8309218999929731,1
2944,55,Larynx,Sham,Tone,Noise,137,4,1,1.9359390999889,1
2945,55,Larynx,Sham,Tone,Noise,138,2,0,0.497514600050636,1
2946,55,Larynx,Sham,Tone,Noise,139,1,0,0.418883099919185,1
2947,55,Larynx,Sham,Tone,Noise,140,3,0,0.45970699994359204,1
2948,55,Larynx,Sham,Tone,Noise,141,3,0,0.5351250999374321,1
2949,55,Larynx,Sham,Tone,Noise,142,5,0,0.49933520006015897,1
2950,55,Larynx,Sham,Tone,Noise,143,5,0,0.564101599971764,1
2951,55,Larynx,Sham,Tone,Noise,144,5,1,1.27066709997598,1
2952,55,Larynx,Sham,Tone,Noise,145,1,0,0.712188099976629,1
2953,55,Larynx,Sham,Tone,Noise,146,4,0,0.8448990000179041,1
2954,55,Larynx,Sham,Tone,Noise,147,3,0,0.711359199951403,1
2955,55,Larynx,Sham,Tone,Noise,148,1,0,0.9823337000561879,1
2956,55,Larynx,Sham,Tone,Noise,149,3,0,0.6983189000748101,1
2957,55,Larynx,Sham,Tone,Noise,150,1,0,0.683379599940963,1
2958,55,Larynx,Sham,Tone,Noise,151,2,0,1.92084749997593,1
2959,55,Larynx,Sham,Tone,Noise,152,4,0,0.7659305999986831,1
2960,55,Larynx,Sham,Tone,Noise,153,5,0,1.77889109996613,1
2961,55,Larynx,Sham,Tone,Noise,154,3,0,1.5171323999529698,1
2962,55,Larynx,Sham,Tone,Noise,155,3,1,1.27732610004023,1
2963,55,Larynx,Sham,Tone,Noise,156,4,0,1.0315892000217,1
5304,104,Larynx,Right cTBS,Tone,Noise,1,1,0,0.9021124999853779,1
5305,104,Larynx,Right cTBS,Tone,Noise,2,4,0,0.709343700029422,1
5306,104,Larynx,Right cTBS,Tone,Noise,3,2,0,0.6968762999749739,1
5307,104,Larynx,Right cTBS,Tone,Noise,4,3,1,0.815057699976023,1
5308,104,Larynx,Right cTBS,Tone,Noise,5,3,0,0.9145883999881329,1
5309,104,Larynx,Right cTBS,Tone,Noise,6,4,0,0.71603170002345,1
5310,104,Larynx,Right cTBS,Tone,Noise,7,4,1,0.772970999998506,1
5311,104,Larynx,Right cTBS,Tone,Noise,8,5,0,0.667766099970322,1
5312,104,Larynx,Right cTBS,Tone,Noise,9,5,0,0.6805339999846179,1
5313,104,Larynx,Right cTBS,Tone,Noise,10,2,0,0.6041268000262789,1
5314,104,Larynx,Right cTBS,Tone,Noise,11,3,0,0.5938317000400279,1
5315,104,Larynx,Right cTBS,Tone,Noise,12,2,1,0.7075185000430791,1
5316,104,Larynx,Right cTBS,Tone,Noise,13,1,0,0.7880546000087629,1
5317,104,Larynx,Right cTBS,Tone,Noise,14,4,1,0.7887901000212879,1
5318,104,Larynx,Right cTBS,Tone,Noise,15,3,1,0.733760999981314,1
5319,104,Larynx,Right cTBS,Tone,Noise,16,3,0,1.07953829999315,1
5320,104,Larynx,Right cTBS,Tone,Noise,17,2,0,0.626431300013792,1
5321,104,Larynx,Right cTBS,Tone,Noise,18,1,0,0.6191861999686811,1
5322,104,Larynx,Right cTBS,Tone,Noise,19,2,0,0.605747300025541,1
5323,104,Larynx,Right cTBS,Tone,Noise,20,1,1,0.68957099999534,1
5324,104,Larynx,Right cTBS,Tone,Noise,21,2,1,0.6632241000188511,1
5325,104,Larynx,Right cTBS,Tone,Noise,22,3,0,0.675293799955398,1
5326,104,Larynx,Right cTBS,Tone,Noise,23,3,0,0.583730400016066,1
5327,104,Larynx,Right cTBS,Tone,Noise,24,1,0,0.600195900013205,1
5328,104,Larynx,Right cTBS,Tone,Noise,25,3,0,0.742004600004293,1
5329,104,Larynx,Right cTBS,Tone,Noise,26,1,0,0.652148900029715,1
5330,104,Larynx,Right cTBS,Tone,Noise,27,3,0,0.600636299990583,1
5331,104,Larynx,Right cTBS,Tone,Noise,28,5,0,0.680116900010034,1
5332,104,Larynx,Right cTBS,Tone,Noise,29,4,0,0.6202395000145771,1
5333,104,Larynx,Right cTBS,Tone,Noise,30,2,0,0.676839700026903,1
5334,104,Larynx,Right cTBS,Tone,Noise,31,3,0,0.636189699987881,1
5335,104,Larynx,Right cTBS,Tone,Noise,32,4,0,0.690800600044895,1
5336,104,Larynx,Right cTBS,Tone,Noise,33,5,0,0.7536563999601641,1
5337,104,Larynx,Right cTBS,Tone,Noise,34,4,1,0.7076496999943629,1
5338,104,Larynx,Right cTBS,Tone,Noise,35,4,0,0.6260158999939449,1
5339,104,Larynx,Right cTBS,Tone,Noise,36,2,1,0.6629480000119661,1
5340,104,Larynx,Right cTBS,Tone,Noise,37,3,0,0.621770299971104,1
5341,104,Larynx,Right cTBS,Tone,Noise,38,5,0,0.584919799992349,1
5342,104,Larynx,Right cTBS,Tone,Noise,39,5,0,0.543050799984485,1
5343,104,Larynx,Right cTBS,Tone,Noise,40,5,0,0.619218000036199,1
5344,104,Larynx,Right cTBS,Tone,Noise,41,4,1,0.658477400022093,1
5345,104,Larynx,Right cTBS,Tone,Noise,42,5,0,0.609036500041839,1
5346,104,Larynx,Right cTBS,Tone,Noise,43,1,0,0.6804612000123599,1
5347,104,Larynx,Right cTBS,Tone,Noise,44,3,0,0.622505700041074,1
5348,104,Larynx,Right cTBS,Tone,Noise,45,2,1,0.6775824999785981,1
5349,104,Larynx,Right cTBS,Tone,Noise,46,3,0,0.616906800016295,1
5350,104,Larynx,Right cTBS,Tone,Noise,47,5,1,0.691709999984596,1
5351,104,Larynx,Right cTBS,Tone,Noise,48,2,0,0.63261179998517,1
5352,104,Larynx,Right cTBS,Tone,Noise,49,4,0,0.595940400031395,1
5353,104,Larynx,Right cTBS,Tone,Noise,50,5,0,0.5927575000096109,1
5354,104,Larynx,Right cTBS,Tone,Noise,51,2,0,0.65429520001635,1
5355,104,Larynx,Right cTBS,Tone,Noise,52,2,1,0.690530400024727,1
5356,104,Larynx,Right cTBS,Tone,Noise,53,4,0,0.6609615000197661,1
5357,104,Larynx,Right cTBS,Tone,Noise,54,1,0,0.67840710002929,1
5358,104,Larynx,Right cTBS,Tone,Noise,55,3,0,0.781753099989146,1
5359,104,Larynx,Right cTBS,Tone,Noise,56,3,1,0.6498701999662441,1
5360,104,Larynx,Right cTBS,Tone,Noise,57,3,0,0.661080099991523,1
5361,104,Larynx,Right cTBS,Tone,Noise,58,5,0,0.690600499976426,1
5362,104,Larynx,Right cTBS,Tone,Noise,59,2,0,0.680327600042801,1
5363,104,Larynx,Right cTBS,Tone,Noise,60,1,0,0.6538404999882911,1
5364,104,Larynx,Right cTBS,Tone,Noise,61,2,0,0.621590599999763,1
5365,104,Larynx,Right cTBS,Tone,Noise,62,4,0,0.641157599980943,1
5366,104,Larynx,Right cTBS,Tone,Noise,63,3,0,0.6346636999514891,1
5367,104,Larynx,Right cTBS,Tone,Noise,64,4,0,0.629350400005933,1
5368,104,Larynx,Right cTBS,Tone,Noise,65,1,1,0.7112942000385369,1
5369,104,Larynx,Right cTBS,Tone,Noise,66,5,0,0.6454283000202851,1
5370,104,Larynx,Right cTBS,Tone,Noise,67,1,0,0.688608700002078,1
5371,104,Larynx,Right cTBS,Tone,Noise,68,2,0,0.6251886000391099,1
5372,104,Larynx,Right cTBS,Tone,Noise,69,3,0,0.663576900027692,1
5373,104,Larynx,Right cTBS,Tone,Noise,70,4,0,0.670527900045272,1
5374,104,Larynx,Right cTBS,Tone,Noise,71,3,0,0.7976339000160809,1
5375,104,Larynx,Right cTBS,Tone,Noise,72,1,0,0.6584695999626999,1
5376,104,Larynx,Right cTBS,Tone,Noise,73,4,0,0.590803899976891,1
5377,104,Larynx,Right cTBS,Tone,Noise,74,3,0,0.671829600003548,1
5378,104,Larynx,Right cTBS,Tone,Noise,75,2,0,0.6129234000109139,1
5379,104,Larynx,Right cTBS,Tone,Noise,76,3,0,0.5705316999810749,1
5380,104,Larynx,Right cTBS,Tone,Noise,77,4,0,0.69588409998687,1
5381,104,Larynx,Right cTBS,Tone,Noise,78,3,0,0.597003399976529,1
5382,104,Larynx,Right cTBS,Tone,Noise,79,4,0,0.666259900026489,1
5383,104,Larynx,Right cTBS,Tone,Noise,80,2,1,0.6831351000000719,1
5384,104,Larynx,Right cTBS,Tone,Noise,81,2,0,0.8896193000255149,1
5385,104,Larynx,Right cTBS,Tone,Noise,82,3,0,0.580348399991635,1
5386,104,Larynx,Right cTBS,Tone,Noise,83,3,0,0.6119034999865111,1
5387,104,Larynx,Right cTBS,Tone,Noise,84,3,0,0.710368300031405,1
5388,104,Larynx,Right cTBS,Tone,Noise,85,4,1,0.659365199971944,1
5389,104,Larynx,Right cTBS,Tone,Noise,86,1,0,0.6125252000056209,1
5390,104,Larynx,Right cTBS,Tone,Noise,87,1,0,0.652094900025986,1
5391,104,Larynx,Right cTBS,Tone,Noise,88,2,1,0.679745399975218,1
5392,104,Larynx,Right cTBS,Tone,Noise,89,2,0,0.6134244999848311,1
5393,104,Larynx,Right cTBS,Tone,Noise,90,4,1,0.7202897000242959,1
5394,104,Larynx,Right cTBS,Tone,Noise,91,5,0,0.621140100003686,1
5395,104,Larynx,Right cTBS,Tone,Noise,92,5,0,0.576747399987653,1
5396,104,Larynx,Right cTBS,Tone,Noise,93,3,1,0.7196156000136401,1
5397,104,Larynx,Right cTBS,Tone,Noise,94,2,1,0.78409129998181,1
5398,104,Larynx,Right cTBS,Tone,Noise,95,4,0,0.8406936000101272,1
5399,104,Larynx,Right cTBS,Tone,Noise,96,1,0,0.56629879999673,1
5400,104,Larynx,Right cTBS,Tone,Noise,97,1,0,0.673850199964363,1
5401,104,Larynx,Right cTBS,Tone,Noise,98,3,0,0.59727379999822,1
5402,104,Larynx,Right cTBS,Tone,Noise,99,3,0,0.592885599995498,1
5403,104,Larynx,Right cTBS,Tone,Noise,100,2,1,0.554727299953811,1
5404,104,Larynx,Right cTBS,Tone,Noise,101,5,0,0.5548577000154179,1
5405,104,Larynx,Right cTBS,Tone,Noise,102,4,0,0.519304700021166,1
5406,104,Larynx,Right cTBS,Tone,Noise,103,5,0,0.6847176000010219,1
5407,104,Larynx,Right cTBS,Tone,Noise,104,3,1,0.5989028000039979,1
5408,104,Larynx,Right cTBS,Tone,Noise,105,4,1,0.603682000015397,1
5409,104,Larynx,Right cTBS,Tone,Noise,106,3,0,0.6118523000041021,1
5410,104,Larynx,Right cTBS,Tone,Noise,107,1,0,0.519679800025187,1
5411,104,Larynx,Right cTBS,Tone,Noise,108,5,0,0.682858300046064,1
5412,104,Larynx,Right cTBS,Tone,Noise,109,1,0,0.5924318000325001,1
5413,104,Larynx,Right cTBS,Tone,Noise,110,3,0,0.536907100002281,1
5414,104,Larynx,Right cTBS,Tone,Noise,111,5,0,0.6291166000301021,1
5415,104,Larynx,Right cTBS,Tone,Noise,112,3,1,0.662788400019053,1
5416,104,Larynx,Right cTBS,Tone,Noise,113,3,1,0.6267911000177261,1
5417,104,Larynx,Right cTBS,Tone,Noise,114,2,0,0.575827999971807,1
5418,104,Larynx,Right cTBS,Tone,Noise,115,4,0,0.50620910001453,1
5419,104,Larynx,Right cTBS,Tone,Noise,116,2,0,0.5709906999836679,1
5420,104,Larynx,Right cTBS,Tone,Noise,117,4,1,0.591823900002055,1
5421,104,Larynx,Right cTBS,Tone,Noise,118,2,0,0.581517200043891,1
5422,104,Larynx,Right cTBS,Tone,Noise,119,3,0,0.5592169999727049,1
5423,104,Larynx,Right cTBS,Tone,Noise,120,5,1,0.6877265999792139,1
5424,104,Larynx,Right cTBS,Tone,Noise,121,4,0,0.5610449999803679,1
5425,104,Larynx,Right cTBS,Tone,Noise,122,1,0,0.544355399964843,1
5426,104,Larynx,Right cTBS,Tone,Noise,123,2,1,0.6592817000346259,1
5427,104,Larynx,Right cTBS,Tone,Noise,124,5,0,0.542319999949541,1
5428,104,Larynx,Right cTBS,Tone,Noise,125,1,0,0.649198900035117,1
5429,104,Larynx,Right cTBS,Tone,Noise,126,3,0,0.670660500007216,1
5430,104,Larynx,Right cTBS,Tone,Noise,127,1,1,0.685505600005854,1
5431,104,Larynx,Right cTBS,Tone,Noise,128,3,1,0.6068136999965649,1
5432,104,Larynx,Right cTBS,Tone,Noise,129,1,0,0.568685999955051,1
5433,104,Larynx,Right cTBS,Tone,Noise,130,4,0,0.7607523999759,1
5434,104,Larynx,Right cTBS,Tone,Noise,131,5,0,0.9281390999676659,1
5435,104,Larynx,Right cTBS,Tone,Noise,132,4,0,0.872088500007521,1
5436,104,Larynx,Right cTBS,Tone,Noise,133,4,1,0.654132399999071,1
5437,104,Larynx,Right cTBS,Tone,Noise,134,5,0,0.5531205000006589,1
5438,104,Larynx,Right cTBS,Tone,Noise,135,2,0,0.523141799960285,1
5439,104,Larynx,Right cTBS,Tone,Noise,136,2,1,0.629988200031221,1
5440,104,Larynx,Right cTBS,Tone,Noise,137,5,0,0.575516699987929,1
5441,104,Larynx,Right cTBS,Tone,Noise,138,3,1,0.605693200021051,1
5442,104,Larynx,Right cTBS,Tone,Noise,139,3,1,0.692302000010386,1
5443,104,Larynx,Right cTBS,Tone,Noise,140,4,0,0.599954199977219,1
5444,104,Larynx,Right cTBS,Tone,Noise,141,2,0,0.7227729000151161,1
5445,104,Larynx,Right cTBS,Tone,Noise,142,2,0,0.638624699960928,1
5446,104,Larynx,Right cTBS,Tone,Noise,143,1,1,0.681748400034849,1
5447,104,Larynx,Right cTBS,Tone,Noise,144,4,0,0.711141799984034,1
5448,104,Larynx,Right cTBS,Tone,Noise,145,3,1,0.643893499975093,1
5449,104,Larynx,Right cTBS,Tone,Noise,146,3,0,0.5305428999708971,1
5450,104,Larynx,Right cTBS,Tone,Noise,147,3,1,0.6971765999915079,1
5451,104,Larynx,Right cTBS,Tone,Noise,148,4,0,0.516862499993294,1
5452,104,Larynx,Right cTBS,Tone,Noise,149,5,1,0.5973001000238579,1
5453,104,Larynx,Right cTBS,Tone,Noise,150,2,0,0.594312800036278,1
5454,104,Larynx,Right cTBS,Tone,Noise,151,2,0,0.513028999965172,1
5455,104,Larynx,Right cTBS,Tone,Noise,152,3,1,0.629001399967819,1
5456,104,Larynx,Right cTBS,Tone,Noise,153,3,0,0.6116291999933311,1
5457,104,Larynx,Right cTBS,Tone,Noise,154,3,0,0.592806299973745,1
5458,104,Larynx,Right cTBS,Tone,Noise,155,1,0,0.572882100008428,1
5459,104,Larynx,Right cTBS,Tone,Noise,156,4,0,0.5986037999973629,1
5928,104,Larynx,Sham,Tone,Noise,1,4,0,0.721078100032173,1
5929,104,Larynx,Sham,Tone,Noise,2,2,0,0.48483380000106996,1
5930,104,Larynx,Sham,Tone,Noise,3,4,1,0.5731131999636999,1
5931,104,Larynx,Sham,Tone,Noise,4,1,0,0.530742200033274,1
5932,104,Larynx,Sham,Tone,Noise,5,1,0,0.557072499999776,1
5933,104,Larynx,Sham,Tone,Noise,6,3,0,0.544112699979451,1
5934,104,Larynx,Sham,Tone,Noise,7,2,0,0.543277999968268,1
5935,104,Larynx,Sham,Tone,Noise,8,2,1,0.526052800007164,1
5936,104,Larynx,Sham,Tone,Noise,9,2,0,0.5726001999573779,1
5937,104,Larynx,Sham,Tone,Noise,10,2,0,0.565620500012301,1
5938,104,Larynx,Sham,Tone,Noise,11,4,0,0.503494700009469,1
5939,104,Larynx,Sham,Tone,Noise,12,2,0,0.604114899993874,1
5940,104,Larynx,Sham,Tone,Noise,13,3,0,0.5756124000181441,1
5941,104,Larynx,Sham,Tone,Noise,14,3,0,0.681123099988326,1
5942,104,Larynx,Sham,Tone,Noise,15,3,0,0.5594810000038709,1
5943,104,Larynx,Sham,Tone,Noise,16,1,0,0.5441355999791989,1
5944,104,Larynx,Sham,Tone,Noise,17,4,1,0.5911444000084879,1
5945,104,Larynx,Sham,Tone,Noise,18,5,0,0.6633961000479761,1
5946,104,Larynx,Sham,Tone,Noise,19,4,1,0.5838650999939999,1
5947,104,Larynx,Sham,Tone,Noise,20,5,0,0.7384013999835591,1
5948,104,Larynx,Sham,Tone,Noise,21,3,0,0.678178699978162,1
5949,104,Larynx,Sham,Tone,Noise,22,1,1,0.5476763999904509,1
5950,104,Larynx,Sham,Tone,Noise,23,3,1,0.625986099999864,1
5951,104,Larynx,Sham,Tone,Noise,24,1,1,0.582499500014819,1
5952,104,Larynx,Sham,Tone,Noise,25,3,1,0.8342295000329609,1
5953,104,Larynx,Sham,Tone,Noise,26,5,0,0.5506119999918161,1
5954,104,Larynx,Sham,Tone,Noise,27,5,0,0.56515420001233,1
5955,104,Larynx,Sham,Tone,Noise,28,4,0,0.5348902000114321,1
5956,104,Larynx,Sham,Tone,Noise,29,3,0,0.567466799984686,1
5957,104,Larynx,Sham,Tone,Noise,30,3,1,0.559918400016613,1
5958,104,Larynx,Sham,Tone,Noise,31,2,0,0.557169499981683,1
5959,104,Larynx,Sham,Tone,Noise,32,1,0,0.74911279999651,1
5960,104,Larynx,Sham,Tone,Noise,33,5,0,0.6357098000007679,1
5961,104,Larynx,Sham,Tone,Noise,34,5,0,0.585460999980569,1
5962,104,Larynx,Sham,Tone,Noise,35,4,1,0.568911100039259,1
5963,104,Larynx,Sham,Tone,Noise,36,3,1,0.564573400013614,1
5964,104,Larynx,Sham,Tone,Noise,37,3,1,0.574534600018524,1
5965,104,Larynx,Sham,Tone,Noise,38,4,1,0.657987700018566,1
5966,104,Larynx,Sham,Tone,Noise,39,2,0,0.5614317999570629,1
5967,104,Larynx,Sham,Tone,Noise,40,3,1,0.665267900039908,1
5968,104,Larynx,Sham,Tone,Noise,41,4,0,0.73318930005189,1
5969,104,Larynx,Sham,Tone,Noise,42,2,0,0.607244100014213,1
5970,104,Larynx,Sham,Tone,Noise,43,5,0,0.541152199963108,1
5971,104,Larynx,Sham,Tone,Noise,44,2,0,0.665589899988845,1
5972,104,Larynx,Sham,Tone,Noise,45,3,1,0.77681999997003,1
5973,104,Larynx,Sham,Tone,Noise,46,2,1,0.44204870000248797,1
5974,104,Larynx,Sham,Tone,Noise,47,5,1,0.537310299987439,1
5975,104,Larynx,Sham,Tone,Noise,48,1,1,0.6422468999517149,1
5976,104,Larynx,Sham,Tone,Noise,49,3,0,0.565530100022443,1
5977,104,Larynx,Sham,Tone,Noise,50,4,0,0.49788430001353795,1
5978,104,Larynx,Sham,Tone,Noise,51,3,0,0.45193039998412105,1
5979,104,Larynx,Sham,Tone,Noise,52,5,0,0.437437299988233,1
5980,104,Larynx,Sham,Tone,Noise,53,4,0,0.747971799981315,1
5981,104,Larynx,Sham,Tone,Noise,54,4,1,0.530940999975428,1
5982,104,Larynx,Sham,Tone,Noise,55,2,1,0.47309549996862205,1
5983,104,Larynx,Sham,Tone,Noise,56,4,0,0.537622400035616,1
5984,104,Larynx,Sham,Tone,Noise,57,3,0,0.492862300015986,1
5985,104,Larynx,Sham,Tone,Noise,58,1,0,0.47359499998856297,1
5986,104,Larynx,Sham,Tone,Noise,59,2,0,0.490723899973091,1
5987,104,Larynx,Sham,Tone,Noise,60,3,1,0.496119900024496,1
5988,104,Larynx,Sham,Tone,Noise,61,5,1,0.6845700000412761,1
5989,104,Larynx,Sham,Tone,Noise,62,4,0,0.6844191999989561,1
5990,104,Larynx,Sham,Tone,Noise,63,1,0,0.6096736000035891,1
5991,104,Larynx,Sham,Tone,Noise,64,5,1,0.49231960001634395,1
5992,104,Larynx,Sham,Tone,Noise,65,2,1,0.452869299973827,1
5993,104,Larynx,Sham,Tone,Noise,66,3,0,0.545471900026314,1
5994,104,Larynx,Sham,Tone,Noise,67,1,1,0.47453480004333004,1
5995,104,Larynx,Sham,Tone,Noise,68,4,0,0.561209699953906,1
5996,104,Larynx,Sham,Tone,Noise,69,1,0,0.6048969000112271,1
5997,104,Larynx,Sham,Tone,Noise,70,1,1,0.49374850001186105,1
5998,104,Larynx,Sham,Tone,Noise,71,3,1,0.473354799964,1
5999,104,Larynx,Sham,Tone,Noise,72,5,0,0.579075700021349,1
6000,104,Larynx,Sham,Tone,Noise,73,2,0,0.3917685000342321,1
6001,104,Larynx,Sham,Tone,Noise,74,4,0,0.543305600003805,1
6002,104,Larynx,Sham,Tone,Noise,75,2,0,0.431050800019875,1
6003,104,Larynx,Sham,Tone,Noise,76,3,0,0.533058500033803,1
6004,104,Larynx,Sham,Tone,Noise,77,3,0,0.6005571999703531,1
6005,104,Larynx,Sham,Tone,Noise,78,3,1,0.592700000037439,1
6006,104,Larynx,Sham,Tone,Noise,79,2,1,0.498178099980578,1
6007,104,Larynx,Sham,Tone,Noise,80,4,1,0.602714899985585,1
6008,104,Larynx,Sham,Tone,Noise,81,4,0,0.47929869999643393,1
6009,104,Larynx,Sham,Tone,Noise,82,2,0,0.46527829999104103,1
6010,104,Larynx,Sham,Tone,Noise,83,3,0,0.48799880000296997,1
6011,104,Larynx,Sham,Tone,Noise,84,3,0,0.4458218999789099,1
6012,104,Larynx,Sham,Tone,Noise,85,1,0,0.48976989998482207,1
6013,104,Larynx,Sham,Tone,Noise,86,4,1,0.5404419999686071,1
6014,104,Larynx,Sham,Tone,Noise,87,3,1,0.4778309999965129,1
6015,104,Larynx,Sham,Tone,Noise,88,2,1,0.716975499992259,1
6016,104,Larynx,Sham,Tone,Noise,89,5,0,0.5222041999804791,1
6017,104,Larynx,Sham,Tone,Noise,90,1,0,0.47537200001534097,1
6018,104,Larynx,Sham,Tone,Noise,91,5,0,0.45858600002247796,1
6019,104,Larynx,Sham,Tone,Noise,92,4,0,0.540820199996233,1
6020,104,Larynx,Sham,Tone,Noise,93,3,0,0.48614469997119203,1
6021,104,Larynx,Sham,Tone,Noise,94,1,1,0.4814085999969389,1
6022,104,Larynx,Sham,Tone,Noise,95,5,1,0.55114420002792,1
6023,104,Larynx,Sham,Tone,Noise,96,3,0,0.668481400003657,1
6024,104,Larynx,Sham,Tone,Noise,97,4,0,0.521411299996544,1
6025,104,Larynx,Sham,Tone,Noise,98,3,0,0.540208399994299,1
6026,104,Larynx,Sham,Tone,Noise,99,2,0,0.744847199996002,1
6027,104,Larynx,Sham,Tone,Noise,100,3,0,0.474689599999692,1
6028,104,Larynx,Sham,Tone,Noise,101,3,0,0.41341410001041395,1
6029,104,Larynx,Sham,Tone,Noise,102,2,0,0.4911456999834629,1
6030,104,Larynx,Sham,Tone,Noise,103,5,0,0.47191129997372605,1
6031,104,Larynx,Sham,Tone,Noise,104,5,1,0.47046559996670095,1
6032,104,Larynx,Sham,Tone,Noise,105,1,0,0.560421600006521,1
6033,104,Larynx,Sham,Tone,Noise,106,3,1,0.5007881000055929,1
6034,104,Larynx,Sham,Tone,Noise,107,4,0,0.601712499978021,1
6035,104,Larynx,Sham,Tone,Noise,108,2,1,0.509959299990442,1
6036,104,Larynx,Sham,Tone,Noise,109,3,1,0.52119749999838,1
6037,104,Larynx,Sham,Tone,Noise,110,3,1,0.44149930001003707,1
6038,104,Larynx,Sham,Tone,Noise,111,2,1,0.5515311000053771,1
6039,104,Larynx,Sham,Tone,Noise,112,1,0,0.6170075000263749,1
6040,104,Larynx,Sham,Tone,Noise,113,4,1,0.46622520004166296,1
6041,104,Larynx,Sham,Tone,Noise,114,5,0,0.495466399996076,1
6042,104,Larynx,Sham,Tone,Noise,115,1,1,0.403656199981924,1
6043,104,Larynx,Sham,Tone,Noise,116,2,0,0.7167495000176128,1
6044,104,Larynx,Sham,Tone,Noise,117,4,0,0.500442199991085,1
6045,104,Larynx,Sham,Tone,Noise,118,3,1,0.466377799981274,1
6046,104,Larynx,Sham,Tone,Noise,119,4,1,0.5511476999963629,1
6047,104,Larynx,Sham,Tone,Noise,120,2,1,0.470367399975657,1
6048,104,Larynx,Sham,Tone,Noise,121,1,0,0.601513499976136,1
6049,104,Larynx,Sham,Tone,Noise,122,1,1,0.735028699971735,1
6050,104,Larynx,Sham,Tone,Noise,123,3,1,0.538167499995325,1
6051,104,Larynx,Sham,Tone,Noise,124,3,0,0.6073021999909539,1
6052,104,Larynx,Sham,Tone,Noise,125,5,1,0.568984500016086,1
6053,104,Larynx,Sham,Tone,Noise,126,5,0,0.513225500006229,1
6054,104,Larynx,Sham,Tone,Noise,127,3,0,0.736149900010787,1
6055,104,Larynx,Sham,Tone,Noise,128,3,1,0.5280663000303321,1
6056,104,Larynx,Sham,Tone,Noise,129,3,1,0.5515596999903211,1
6057,104,Larynx,Sham,Tone,Noise,130,4,1,0.625569799973164,1
6058,104,Larynx,Sham,Tone,Noise,131,2,0,0.6369198999600489,1
6059,104,Larynx,Sham,Tone,Noise,132,3,1,0.501542199985124,1
6060,104,Larynx,Sham,Tone,Noise,133,4,1,0.539637000008952,1
6061,104,Larynx,Sham,Tone,Noise,134,5,0,0.620336699998006,1
6062,104,Larynx,Sham,Tone,Noise,135,4,1,0.580375500023365,1
6063,104,Larynx,Sham,Tone,Noise,136,5,1,0.683336600020994,1
6064,104,Larynx,Sham,Tone,Noise,137,3,0,0.6495159000041889,1
6065,104,Larynx,Sham,Tone,Noise,138,2,1,0.5070576999569311,1
6066,104,Larynx,Sham,Tone,Noise,139,3,1,0.709250800020527,1
6067,104,Larynx,Sham,Tone,Noise,140,4,0,0.612509300000966,1
6068,104,Larynx,Sham,Tone,Noise,141,1,0,0.535696999984793,1
6069,104,Larynx,Sham,Tone,Noise,142,1,0,0.6090456999954771,1
6070,104,Larynx,Sham,Tone,Noise,143,2,0,0.538134300033562,1
6071,104,Larynx,Sham,Tone,Noise,144,2,1,0.5248566000373099,1
6072,104,Larynx,Sham,Tone,Noise,145,5,1,0.7452599999960509,1
6073,104,Larynx,Sham,Tone,Noise,146,4,1,0.5981716000242161,1
6074,104,Larynx,Sham,Tone,Noise,147,2,0,0.604396100039594,1
6075,104,Larynx,Sham,Tone,Noise,148,4,0,0.615038499992806,1
6076,104,Larynx,Sham,Tone,Noise,149,2,0,0.473287599976175,1
6077,104,Larynx,Sham,Tone,Noise,150,3,0,0.585076400020625,1
6078,104,Larynx,Sham,Tone,Noise,151,1,0,0.503993599966634,1
6079,104,Larynx,Sham,Tone,Noise,152,1,0,0.5577776000136511,1
6080,104,Larynx,Sham,Tone,Noise,153,3,1,0.543309099972248,1
6081,104,Larynx,Sham,Tone,Noise,154,4,0,0.6660541000310329,1
6082,104,Larynx,Sham,Tone,Noise,155,2,0,0.660035100008827,1
6083,104,Larynx,Sham,Tone,Noise,156,5,0,0.5925278999493461,1
8424,123,Larynx,Right cTBS,Tone,Noise,1,2,1,1.6342551000416299,1
8425,123,Larynx,Right cTBS,Tone,Noise,2,3,0,1.70422680000775,1
8426,123,Larynx,Right cTBS,Tone,Noise,3,1,0,1.63070350000635,1
8427,123,Larynx,Right cTBS,Tone,Noise,4,2,0,1.2455811999971,1
8428,123,Larynx,Right cTBS,Tone,Noise,5,4,1,0.790909999981523,1
8429,123,Larynx,Right cTBS,Tone,Noise,6,4,1,0.591243300004862,1
8430,123,Larynx,Right cTBS,Tone,Noise,7,3,1,0.9825260000070558,1
8431,123,Larynx,Right cTBS,Tone,Noise,8,5,1,1.0107218000339302,1
8432,123,Larynx,Right cTBS,Tone,Noise,9,2,0,1.7500898001016998,1
8433,123,Larynx,Right cTBS,Tone,Noise,10,2,0,0.903950500069186,1
8434,123,Larynx,Right cTBS,Tone,Noise,11,3,1,1.17448759998661,1
8435,123,Larynx,Right cTBS,Tone,Noise,12,2,0,0.994576400029473,1
8436,123,Larynx,Right cTBS,Tone,Noise,13,5,1,0.8271260000765319,1
8437,123,Larynx,Right cTBS,Tone,Noise,14,4,1,1.05327770009171,1
8438,123,Larynx,Right cTBS,Tone,Noise,15,3,1,0.94932570005767,1
8439,123,Larynx,Right cTBS,Tone,Noise,16,5,1,0.510840300004929,1
8440,123,Larynx,Right cTBS,Tone,Noise,17,4,1,0.460429599974304,1
8441,123,Larynx,Right cTBS,Tone,Noise,18,3,1,0.37944849999621505,1
8442,123,Larynx,Right cTBS,Tone,Noise,19,3,1,0.7153441000264141,1
8443,123,Larynx,Right cTBS,Tone,Noise,20,1,0,0.769292099983431,1
8444,123,Larynx,Right cTBS,Tone,Noise,21,1,0,0.570822799927555,1
8445,123,Larynx,Right cTBS,Tone,Noise,22,1,0,0.522104799980298,1
8446,123,Larynx,Right cTBS,Tone,Noise,23,2,0,0.6590937000000849,1
8447,123,Larynx,Right cTBS,Tone,Noise,24,1,0,0.7697928999550641,1
8448,123,Larynx,Right cTBS,Tone,Noise,25,3,1,1.10938180005178,1
8449,123,Larynx,Right cTBS,Tone,Noise,26,5,1,1.28029660007451,1
8450,123,Larynx,Right cTBS,Tone,Noise,27,3,1,0.553560800035484,1
8451,123,Larynx,Right cTBS,Tone,Noise,28,2,0,0.6205859000328929,1
8452,123,Larynx,Right cTBS,Tone,Noise,29,4,1,0.648847899981774,1
8453,123,Larynx,Right cTBS,Tone,Noise,30,4,1,0.513839999912307,1
8454,123,Larynx,Right cTBS,Tone,Noise,31,3,1,0.670302199898288,1
8455,123,Larynx,Right cTBS,Tone,Noise,32,1,0,0.6309455999871719,1
8456,123,Larynx,Right cTBS,Tone,Noise,33,2,0,0.722818100010045,1
8457,123,Larynx,Right cTBS,Tone,Noise,34,3,1,1.00951469992287,1
8458,123,Larynx,Right cTBS,Tone,Noise,35,5,1,1.50002370006405,1
8459,123,Larynx,Right cTBS,Tone,Noise,36,3,1,0.895587799954228,1
8460,123,Larynx,Right cTBS,Tone,Noise,37,5,1,0.585656099952757,1
8461,123,Larynx,Right cTBS,Tone,Noise,38,4,1,0.983187199919485,1
8462,123,Larynx,Right cTBS,Tone,Noise,39,4,1,0.5526979999849571,1
8463,123,Larynx,Right cTBS,Tone,Noise,40,3,1,0.952306700055487,1
8464,123,Larynx,Right cTBS,Tone,Noise,41,5,0,1.27951249992475,1
8465,123,Larynx,Right cTBS,Tone,Noise,42,5,1,1.06510679994244,1
8466,123,Larynx,Right cTBS,Tone,Noise,43,4,1,1.0344594999915,1
8467,123,Larynx,Right cTBS,Tone,Noise,44,2,0,0.623671200009994,1
8468,123,Larynx,Right cTBS,Tone,Noise,45,4,1,0.6897098999470469,1
8469,123,Larynx,Right cTBS,Tone,Noise,46,3,1,0.660163099993952,1
8470,123,Larynx,Right cTBS,Tone,Noise,47,3,1,0.642906999913976,1
8471,123,Larynx,Right cTBS,Tone,Noise,48,1,0,0.62172549997922,1
8472,123,Larynx,Right cTBS,Tone,Noise,49,1,0,0.696849800064228,1
8473,123,Larynx,Right cTBS,Tone,Noise,50,1,0,0.520833599963225,1
8474,123,Larynx,Right cTBS,Tone,Noise,51,2,0,0.55599479994271,1
8475,123,Larynx,Right cTBS,Tone,Noise,52,2,0,0.7519870999967679,1
8476,123,Larynx,Right cTBS,Tone,Noise,53,3,0,0.682434500078671,1
8477,123,Larynx,Right cTBS,Tone,Noise,54,2,0,0.581806499976665,1
8478,123,Larynx,Right cTBS,Tone,Noise,55,3,1,1.99753369996324,1
8479,123,Larynx,Right cTBS,Tone,Noise,56,4,1,0.6442060999106619,1
8480,123,Larynx,Right cTBS,Tone,Noise,57,1,0,0.602897699922323,1
8481,123,Larynx,Right cTBS,Tone,Noise,58,4,0,0.555204399977811,1
8482,123,Larynx,Right cTBS,Tone,Noise,59,4,1,0.7534008000511679,1
8483,123,Larynx,Right cTBS,Tone,Noise,60,4,1,0.5197306000627581,1
8484,123,Larynx,Right cTBS,Tone,Noise,61,2,0,0.5829753000289201,1
8485,123,Larynx,Right cTBS,Tone,Noise,62,1,0,0.6250787000171839,1
8486,123,Larynx,Right cTBS,Tone,Noise,63,2,0,1.09380019991659,1
8487,123,Larynx,Right cTBS,Tone,Noise,64,5,1,0.570853499928489,1
8488,123,Larynx,Right cTBS,Tone,Noise,65,3,0,0.658660999964923,1
8489,123,Larynx,Right cTBS,Tone,Noise,66,1,0,0.56491429999005,1
8490,123,Larynx,Right cTBS,Tone,Noise,67,3,0,0.8229230999713759,1
8491,123,Larynx,Right cTBS,Tone,Noise,68,3,0,0.9749305999139319,1
8492,123,Larynx,Right cTBS,Tone,Noise,69,5,1,0.511413200059906,1
8493,123,Larynx,Right cTBS,Tone,Noise,70,5,1,0.5800001999596129,1
8494,123,Larynx,Right cTBS,Tone,Noise,71,3,1,0.77945379994344,1
8495,123,Larynx,Right cTBS,Tone,Noise,72,3,1,0.5441056999843571,1
8496,123,Larynx,Right cTBS,Tone,Noise,73,2,0,0.626910299994051,1
8497,123,Larynx,Right cTBS,Tone,Noise,74,3,0,0.82647879992146,1
8498,123,Larynx,Right cTBS,Tone,Noise,75,2,0,0.751142699969932,1
8499,123,Larynx,Right cTBS,Tone,Noise,76,4,1,0.557684300001711,1
8500,123,Larynx,Right cTBS,Tone,Noise,77,5,1,0.555377299897373,1
8501,123,Larynx,Right cTBS,Tone,Noise,78,4,1,0.5630200000014159,1
8502,123,Larynx,Right cTBS,Tone,Noise,79,4,1,0.6988221000647171,1
8503,123,Larynx,Right cTBS,Tone,Noise,80,1,0,0.47178630006965294,1
8504,123,Larynx,Right cTBS,Tone,Noise,81,3,1,1.32882840000093,1
8505,123,Larynx,Right cTBS,Tone,Noise,82,3,1,0.748938199947588,1
8506,123,Larynx,Right cTBS,Tone,Noise,83,4,1,1.7401956999674402,1
8507,123,Larynx,Right cTBS,Tone,Noise,84,2,0,0.8459616999607529,1
8508,123,Larynx,Right cTBS,Tone,Noise,85,2,0,1.2338347999611898,1
8509,123,Larynx,Right cTBS,Tone,Noise,86,1,0,0.897477799910121,1
8510,123,Larynx,Right cTBS,Tone,Noise,87,1,0,0.62983369990252,1
8511,123,Larynx,Right cTBS,Tone,Noise,88,5,1,0.633604799979366,1
8512,123,Larynx,Right cTBS,Tone,Noise,89,2,0,0.7104407999431709,1
8513,123,Larynx,Right cTBS,Tone,Noise,90,3,1,0.967072299914435,1
8514,123,Larynx,Right cTBS,Tone,Noise,91,5,1,0.692518200026825,1
8515,123,Larynx,Right cTBS,Tone,Noise,92,4,1,0.7978686999995258,1
8516,123,Larynx,Right cTBS,Tone,Noise,93,5,1,0.598912099958397,1
8517,123,Larynx,Right cTBS,Tone,Noise,94,3,0,0.39937009999994205,1
8518,123,Larynx,Right cTBS,Tone,Noise,95,4,0,0.518408700008877,1
8519,123,Larynx,Right cTBS,Tone,Noise,96,4,1,0.5898003999609499,1
8520,123,Larynx,Right cTBS,Tone,Noise,97,1,0,0.502563899965025,1
8521,123,Larynx,Right cTBS,Tone,Noise,98,5,1,0.8139276999281719,1
8522,123,Larynx,Right cTBS,Tone,Noise,99,1,0,1.16711890010629,1
8523,123,Larynx,Right cTBS,Tone,Noise,100,2,0,0.8048881000140681,1
8524,123,Larynx,Right cTBS,Tone,Noise,101,3,0,0.754178100032732,1
8525,123,Larynx,Right cTBS,Tone,Noise,102,3,0,0.595016699982807,1
8526,123,Larynx,Right cTBS,Tone,Noise,103,2,0,1.3264676999533502,1
8527,123,Larynx,Right cTBS,Tone,Noise,104,4,1,0.475476799998432,1
8528,123,Larynx,Right cTBS,Tone,Noise,105,3,0,0.79780090006534,1
8529,123,Larynx,Right cTBS,Tone,Noise,106,5,1,0.47177990002091996,1
8530,123,Larynx,Right cTBS,Tone,Noise,107,2,0,0.4723045999417079,1
8531,123,Larynx,Right cTBS,Tone,Noise,108,4,0,0.6998316999524828,1
8532,123,Larynx,Right cTBS,Tone,Noise,109,4,1,0.612184899975546,1
8533,123,Larynx,Right cTBS,Tone,Noise,110,3,1,0.8195559999439871,1
8534,123,Larynx,Right cTBS,Tone,Noise,111,3,1,1.17870950000361,1
8535,123,Larynx,Right cTBS,Tone,Noise,112,3,0,0.7793676999863242,1
8536,123,Larynx,Right cTBS,Tone,Noise,113,2,0,0.656477099983022,1
8537,123,Larynx,Right cTBS,Tone,Noise,114,1,1,1.5726258000358897,1
8538,123,Larynx,Right cTBS,Tone,Noise,115,5,1,0.9044740999815991,1
8539,123,Larynx,Right cTBS,Tone,Noise,116,3,1,0.917463700054213,1
8540,123,Larynx,Right cTBS,Tone,Noise,117,2,0,0.858858600025997,1
8541,123,Larynx,Right cTBS,Tone,Noise,118,4,1,0.8530882999766619,1
8542,123,Larynx,Right cTBS,Tone,Noise,119,4,1,1.0466018000152,1
8543,123,Larynx,Right cTBS,Tone,Noise,120,1,0,0.606556799961254,1
8544,123,Larynx,Right cTBS,Tone,Noise,121,5,1,0.584557800088078,1
8545,123,Larynx,Right cTBS,Tone,Noise,122,2,0,0.652332499972545,1
8546,123,Larynx,Right cTBS,Tone,Noise,123,1,0,0.81140000000596,1
8547,123,Larynx,Right cTBS,Tone,Noise,124,1,0,0.557938100071624,1
8548,123,Larynx,Right cTBS,Tone,Noise,125,2,0,0.9254220000002529,1
8549,123,Larynx,Right cTBS,Tone,Noise,126,4,1,0.552116199978627,1
8550,123,Larynx,Right cTBS,Tone,Noise,127,2,0,0.7108270999742671,1
8551,123,Larynx,Right cTBS,Tone,Noise,128,2,0,1.35026029997971,1
8552,123,Larynx,Right cTBS,Tone,Noise,129,4,1,1.1231567000504599,1
8553,123,Larynx,Right cTBS,Tone,Noise,130,3,1,0.637731699971482,1
8554,123,Larynx,Right cTBS,Tone,Noise,131,3,0,0.7952091000042859,1
8555,123,Larynx,Right cTBS,Tone,Noise,132,3,1,0.9559678999939929,1
8556,123,Larynx,Right cTBS,Tone,Noise,133,2,1,0.48232229996938303,1
8557,123,Larynx,Right cTBS,Tone,Noise,134,4,0,0.8748255000682551,1
8558,123,Larynx,Right cTBS,Tone,Noise,135,2,0,0.763207899988629,1
8559,123,Larynx,Right cTBS,Tone,Noise,136,3,1,0.640891600050963,1
8560,123,Larynx,Right cTBS,Tone,Noise,137,3,1,0.70861099998001,1
8561,123,Larynx,Right cTBS,Tone,Noise,138,3,1,0.948785300017335,1
8562,123,Larynx,Right cTBS,Tone,Noise,139,2,0,0.5506525000091639,1
8563,123,Larynx,Right cTBS,Tone,Noise,140,5,1,0.847194599919021,1
8564,123,Larynx,Right cTBS,Tone,Noise,141,3,0,0.7411337000085041,1
8565,123,Larynx,Right cTBS,Tone,Noise,142,4,0,0.8111196999670941,1
8566,123,Larynx,Right cTBS,Tone,Noise,143,1,0,0.627916699973866,1
8567,123,Larynx,Right cTBS,Tone,Noise,144,5,1,1.4910518999677198,1
8568,123,Larynx,Right cTBS,Tone,Noise,145,3,1,1.4298145000357199,1
8569,123,Larynx,Right cTBS,Tone,Noise,146,3,1,0.8026133000385021,1
8570,123,Larynx,Right cTBS,Tone,Noise,147,1,0,0.6681316000176589,1
8571,123,Larynx,Right cTBS,Tone,Noise,148,1,0,0.7373893000185491,1
8572,123,Larynx,Right cTBS,Tone,Noise,149,5,1,0.5482529000146311,1
8573,123,Larynx,Right cTBS,Tone,Noise,150,4,1,1.2689874999923603,1
8574,123,Larynx,Right cTBS,Tone,Noise,151,4,1,0.653317699907348,1
8575,123,Larynx,Right cTBS,Tone,Noise,152,3,1,0.799252700060606,1
8576,123,Larynx,Right cTBS,Tone,Noise,153,5,1,1.08019929996226,1
8577,123,Larynx,Right cTBS,Tone,Noise,154,2,0,0.59484550007619,1
8578,123,Larynx,Right cTBS,Tone,Noise,155,3,0,1.25504660001025,1
8579,123,Larynx,Right cTBS,Tone,Noise,156,5,1,0.541739600012079,1
9048,123,Larynx,Sham,Tone,Noise,1,3,0,1.59242689993698,1
9049,123,Larynx,Sham,Tone,Noise,2,4,1,0.696354900021106,1
9050,123,Larynx,Sham,Tone,Noise,3,4,1,0.6506760999327529,1
9051,123,Larynx,Sham,Tone,Noise,4,5,1,0.5549611999886109,1
9052,123,Larynx,Sham,Tone,Noise,5,4,1,0.502827699994668,1
9053,123,Larynx,Sham,Tone,Noise,6,4,0,0.514692299999297,1
9054,123,Larynx,Sham,Tone,Noise,7,5,0,0.49587640003301203,1
9055,123,Larynx,Sham,Tone,Noise,8,5,1,0.622036900022067,1
9056,123,Larynx,Sham,Tone,Noise,9,1,0,0.500369399902411,1
9057,123,Larynx,Sham,Tone,Noise,10,3,1,0.544731800095178,1
9058,123,Larynx,Sham,Tone,Noise,11,5,1,0.496568000060506,1
9059,123,Larynx,Sham,Tone,Noise,12,2,1,0.49257460003718706,1
9060,123,Larynx,Sham,Tone,Noise,13,3,1,0.539122699992731,1
9061,123,Larynx,Sham,Tone,Noise,14,1,0,0.6845943999942391,1
9062,123,Larynx,Sham,Tone,Noise,15,1,0,0.7417686000699181,1
9063,123,Larynx,Sham,Tone,Noise,16,2,0,0.6659100999822839,1
9064,123,Larynx,Sham,Tone,Noise,17,3,1,0.503339300048538,1
9065,123,Larynx,Sham,Tone,Noise,18,1,0,0.786738299997523,1
9066,123,Larynx,Sham,Tone,Noise,19,3,1,0.45768160000443503,1
9067,123,Larynx,Sham,Tone,Noise,20,3,1,0.647278600023128,1
9068,123,Larynx,Sham,Tone,Noise,21,3,1,0.548036399995908,1
9069,123,Larynx,Sham,Tone,Noise,22,4,1,0.5245433000382039,1
9070,123,Larynx,Sham,Tone,Noise,23,4,1,0.42736080009490296,1
9071,123,Larynx,Sham,Tone,Noise,24,5,1,0.49456220003776297,1
9072,123,Larynx,Sham,Tone,Noise,25,3,1,0.462109899963252,1
9073,123,Larynx,Sham,Tone,Noise,26,3,1,0.37458730000071205,1
9074,123,Larynx,Sham,Tone,Noise,27,3,0,0.458560999948531,1
9075,123,Larynx,Sham,Tone,Noise,28,1,0,0.656950399978086,1
9076,123,Larynx,Sham,Tone,Noise,29,4,0,0.6841642999788751,1
9077,123,Larynx,Sham,Tone,Noise,30,2,1,0.383285799995065,1
9078,123,Larynx,Sham,Tone,Noise,31,2,1,0.6298704000655561,1
9079,123,Larynx,Sham,Tone,Noise,32,3,1,0.772824999992736,1
9080,123,Larynx,Sham,Tone,Noise,33,4,1,0.8584556999849159,1
9081,123,Larynx,Sham,Tone,Noise,34,5,1,0.676483100047335,1
9082,123,Larynx,Sham,Tone,Noise,35,2,0,0.629101800033823,1
9083,123,Larynx,Sham,Tone,Noise,36,2,0,0.723731999984011,1
9084,123,Larynx,Sham,Tone,Noise,37,2,1,0.46525400003884004,1
9085,123,Larynx,Sham,Tone,Noise,38,1,1,0.6174186000134799,1
9086,123,Larynx,Sham,Tone,Noise,39,2,0,1.30822440003976,1
9087,123,Larynx,Sham,Tone,Noise,40,4,1,0.5227291000774129,1
9088,123,Larynx,Sham,Tone,Noise,41,3,1,0.48924440005794206,1
9089,123,Larynx,Sham,Tone,Noise,42,4,1,0.657489200006239,1
9090,123,Larynx,Sham,Tone,Noise,43,1,0,0.5936587000032889,1
9091,123,Larynx,Sham,Tone,Noise,44,1,0,0.527335299993865,1
9092,123,Larynx,Sham,Tone,Noise,45,2,0,0.46391739998944104,1
9093,123,Larynx,Sham,Tone,Noise,46,4,0,0.398886000039056,1
9094,123,Larynx,Sham,Tone,Noise,47,4,0,0.659974400070496,1
9095,123,Larynx,Sham,Tone,Noise,48,5,1,0.503399999928661,1
9096,123,Larynx,Sham,Tone,Noise,49,4,1,0.599332300014794,1
9097,123,Larynx,Sham,Tone,Noise,50,2,0,0.6128537999466059,1
9098,123,Larynx,Sham,Tone,Noise,51,1,0,0.46886350004933797,1
9099,123,Larynx,Sham,Tone,Noise,52,3,0,0.49925560003612196,1
9100,123,Larynx,Sham,Tone,Noise,53,5,1,0.46627289999742105,1
9101,123,Larynx,Sham,Tone,Noise,54,2,0,0.62156550004147,1
9102,123,Larynx,Sham,Tone,Noise,55,2,1,0.546625000075437,1
9103,123,Larynx,Sham,Tone,Noise,56,3,0,0.691257999977097,1
9104,123,Larynx,Sham,Tone,Noise,57,5,1,0.5518569999840109,1
9105,123,Larynx,Sham,Tone,Noise,58,3,0,0.551289699971676,1
9106,123,Larynx,Sham,Tone,Noise,59,3,0,0.6538087999215351,1
9107,123,Larynx,Sham,Tone,Noise,60,2,0,0.8248271000338722,1
9108,123,Larynx,Sham,Tone,Noise,61,3,1,0.720619600033388,1
9109,123,Larynx,Sham,Tone,Noise,62,4,1,0.9653513999655842,1
9110,123,Larynx,Sham,Tone,Noise,63,3,1,0.707755799987353,1
9111,123,Larynx,Sham,Tone,Noise,64,5,1,0.49116520001553005,1
9112,123,Larynx,Sham,Tone,Noise,65,3,1,0.49045489996206,1
9113,123,Larynx,Sham,Tone,Noise,66,3,1,0.767231700010598,1
9114,123,Larynx,Sham,Tone,Noise,67,4,1,0.633380900020711,1
9115,123,Larynx,Sham,Tone,Noise,68,1,0,0.7817493000766259,1
9116,123,Larynx,Sham,Tone,Noise,69,3,0,0.6472569999750699,1
9117,123,Larynx,Sham,Tone,Noise,70,5,1,0.5252096999902279,1
9118,123,Larynx,Sham,Tone,Noise,71,3,0,0.651475400081836,1
9119,123,Larynx,Sham,Tone,Noise,72,4,0,0.599002199945971,1
9120,123,Larynx,Sham,Tone,Noise,73,5,1,0.7334603000199421,1
9121,123,Larynx,Sham,Tone,Noise,74,2,0,0.7530368999578059,1
9122,123,Larynx,Sham,Tone,Noise,75,1,0,0.661775600048713,1
9123,123,Larynx,Sham,Tone,Noise,76,2,1,0.704573600087315,1
9124,123,Larynx,Sham,Tone,Noise,77,1,0,0.6961031999671831,1
9125,123,Larynx,Sham,Tone,Noise,78,2,1,0.43373709998559207,1
9126,123,Larynx,Sham,Tone,Noise,79,5,1,0.5139532999601221,1
9127,123,Larynx,Sham,Tone,Noise,80,2,1,1.10844189999625,1
9128,123,Larynx,Sham,Tone,Noise,81,2,1,0.731595000019297,1
9129,123,Larynx,Sham,Tone,Noise,82,2,0,0.652026599971578,1
9130,123,Larynx,Sham,Tone,Noise,83,4,1,0.547824600012973,1
9131,123,Larynx,Sham,Tone,Noise,84,2,0,0.8061599000357091,1
9132,123,Larynx,Sham,Tone,Noise,85,2,0,0.900671100011095,1
9133,123,Larynx,Sham,Tone,Noise,86,1,0,0.655158999958076,1
9134,123,Larynx,Sham,Tone,Noise,87,5,1,0.526103800046258,1
9135,123,Larynx,Sham,Tone,Noise,88,5,1,0.5959061000030489,1
9136,123,Larynx,Sham,Tone,Noise,89,3,0,0.653883000020869,1
9137,123,Larynx,Sham,Tone,Noise,90,3,0,0.8744358000112701,1
9138,123,Larynx,Sham,Tone,Noise,91,3,0,0.6041117999702691,1
9139,123,Larynx,Sham,Tone,Noise,92,4,1,0.42993760004174003,1
9140,123,Larynx,Sham,Tone,Noise,93,4,1,0.4624716000398621,1
9141,123,Larynx,Sham,Tone,Noise,94,5,1,0.6318523000227291,1
9142,123,Larynx,Sham,Tone,Noise,95,4,0,0.6966855000937359,1
9143,123,Larynx,Sham,Tone,Noise,96,5,1,0.612083199899644,1
9144,123,Larynx,Sham,Tone,Noise,97,1,0,0.620558499940671,1
9145,123,Larynx,Sham,Tone,Noise,98,3,1,0.481433999957517,1
9146,123,Larynx,Sham,Tone,Noise,99,1,0,0.674342400045134,1
9147,123,Larynx,Sham,Tone,Noise,100,3,0,0.8513053000206129,1
9148,123,Larynx,Sham,Tone,Noise,101,1,0,0.930136900045909,1
9149,123,Larynx,Sham,Tone,Noise,102,4,1,0.49536770000122493,1
9150,123,Larynx,Sham,Tone,Noise,103,3,0,0.67329389997758,1
9151,123,Larynx,Sham,Tone,Noise,104,4,1,0.386298800003715,1
9152,123,Larynx,Sham,Tone,Noise,105,2,0,0.6475276000564921,1
9153,123,Larynx,Sham,Tone,Noise,106,3,1,0.47133339999709295,1
9154,123,Larynx,Sham,Tone,Noise,107,3,0,0.600107899983414,1
9155,123,Larynx,Sham,Tone,Noise,108,5,1,0.347848600009456,1
9156,123,Larynx,Sham,Tone,Noise,109,3,0,0.5606765000848101,1
9157,123,Larynx,Sham,Tone,Noise,110,2,1,0.526770999887958,1
9158,123,Larynx,Sham,Tone,Noise,111,1,1,0.362408099928871,1
9159,123,Larynx,Sham,Tone,Noise,112,4,1,0.546374200028367,1
9160,123,Larynx,Sham,Tone,Noise,113,3,1,0.6865660999901589,1
9161,123,Larynx,Sham,Tone,Noise,114,4,1,0.4449485000222921,1
9162,123,Larynx,Sham,Tone,Noise,115,1,1,0.423100499901921,1
9163,123,Larynx,Sham,Tone,Noise,116,2,0,0.722834800020792,1
9164,123,Larynx,Sham,Tone,Noise,117,3,0,0.674099000054412,1
9165,123,Larynx,Sham,Tone,Noise,118,1,0,0.592713900026865,1
9166,123,Larynx,Sham,Tone,Noise,119,3,0,1.28377580002416,1
9167,123,Larynx,Sham,Tone,Noise,120,1,1,0.6058401999762281,1
9168,123,Larynx,Sham,Tone,Noise,121,3,1,0.582578300032765,1
9169,123,Larynx,Sham,Tone,Noise,122,2,0,0.735402400023304,1
9170,123,Larynx,Sham,Tone,Noise,123,4,1,0.991035100072622,1
9171,123,Larynx,Sham,Tone,Noise,124,4,1,0.644009899930097,1
9172,123,Larynx,Sham,Tone,Noise,125,3,0,0.788811199949123,1
9173,123,Larynx,Sham,Tone,Noise,126,3,1,1.13433439994697,1
9174,123,Larynx,Sham,Tone,Noise,127,2,1,0.857455600053072,1
9175,123,Larynx,Sham,Tone,Noise,128,4,1,1.02327739994507,1
9176,123,Larynx,Sham,Tone,Noise,129,5,1,1.08631160005461,1
9177,123,Larynx,Sham,Tone,Noise,130,2,0,0.8083162000402808,1
9178,123,Larynx,Sham,Tone,Noise,131,1,0,0.7988149999873709,1
9179,123,Larynx,Sham,Tone,Noise,132,2,1,1.0899779000319498,1
9180,123,Larynx,Sham,Tone,Noise,133,5,1,0.8818035000003871,1
9181,123,Larynx,Sham,Tone,Noise,134,3,0,0.5525511000305411,1
9182,123,Larynx,Sham,Tone,Noise,135,3,0,0.584934400045313,1
9183,123,Larynx,Sham,Tone,Noise,136,3,0,0.4527720999903979,1
9184,123,Larynx,Sham,Tone,Noise,137,2,0,0.446504499996081,1
9185,123,Larynx,Sham,Tone,Noise,138,3,0,0.714068000088446,1
9186,123,Larynx,Sham,Tone,Noise,139,4,1,0.422781799919903,1
9187,123,Larynx,Sham,Tone,Noise,140,3,1,0.44195100001525106,1
9188,123,Larynx,Sham,Tone,Noise,141,4,1,0.386219599982724,1
9189,123,Larynx,Sham,Tone,Noise,142,1,0,0.68636020005215,1
9190,123,Larynx,Sham,Tone,Noise,143,5,1,0.523700600024313,1
9191,123,Larynx,Sham,Tone,Noise,144,2,0,0.6900353999808431,1
9192,123,Larynx,Sham,Tone,Noise,145,3,1,0.421502799959853,1
9193,123,Larynx,Sham,Tone,Noise,146,4,1,0.585607299930416,1
9194,123,Larynx,Sham,Tone,Noise,147,1,1,0.42210299998987505,1
9195,123,Larynx,Sham,Tone,Noise,148,1,1,0.8000739000272009,1
9196,123,Larynx,Sham,Tone,Noise,149,2,0,0.921074600075372,1
9197,123,Larynx,Sham,Tone,Noise,150,5,1,0.585109799983911,1
9198,123,Larynx,Sham,Tone,Noise,151,5,1,0.43919259996619103,1
9199,123,Larynx,Sham,Tone,Noise,152,5,1,0.39200049999635705,1
9200,123,Larynx,Sham,Tone,Noise,153,4,1,0.468368400004692,1
9201,123,Larynx,Sham,Tone,Noise,154,3,0,0.6833885000087321,1
9202,123,Larynx,Sham,Tone,Noise,155,2,0,0.57703909999691,1
9203,123,Larynx,Sham,Tone,Noise,156,4,1,0.5101086000213401,1
11544,139,Larynx,Right cTBS,Tone,Noise,1,2,0,0.848937600036152,1
11545,139,Larynx,Right cTBS,Tone,Noise,2,3,1,0.7989693999988959,1
11546,139,Larynx,Right cTBS,Tone,Noise,3,5,0,0.879901499953121,1
11547,139,Larynx,Right cTBS,Tone,Noise,4,5,1,0.689756000007037,1
11548,139,Larynx,Right cTBS,Tone,Noise,5,2,0,0.6589546999894079,1
11549,139,Larynx,Right cTBS,Tone,Noise,6,4,0,0.873299399972893,1
11550,139,Larynx,Right cTBS,Tone,Noise,7,1,0,0.7340902999858371,1
11551,139,Larynx,Right cTBS,Tone,Noise,8,2,0,0.66159690002678,1
11552,139,Larynx,Right cTBS,Tone,Noise,9,3,1,0.6182733000023289,1
11553,139,Larynx,Right cTBS,Tone,Noise,10,3,0,0.6280690000276079,1
11554,139,Larynx,Right cTBS,Tone,Noise,11,1,0,0.9006922999979,1
11555,139,Larynx,Right cTBS,Tone,Noise,12,4,1,0.673858300026041,1
11556,139,Larynx,Right cTBS,Tone,Noise,13,3,0,0.671534900029656,1
11557,139,Larynx,Right cTBS,Tone,Noise,14,3,1,0.83989229996223,1
11558,139,Larynx,Right cTBS,Tone,Noise,15,1,0,0.708278700010851,1
11559,139,Larynx,Right cTBS,Tone,Noise,16,2,1,0.647361399955116,1
11560,139,Larynx,Right cTBS,Tone,Noise,17,3,1,0.5956095999572429,1
11561,139,Larynx,Right cTBS,Tone,Noise,18,5,0,0.645169500028715,1
11562,139,Larynx,Right cTBS,Tone,Noise,19,5,0,0.6390130000072529,1
11563,139,Larynx,Right cTBS,Tone,Noise,20,3,0,0.922632200003136,1
11564,139,Larynx,Right cTBS,Tone,Noise,21,4,1,0.791949499980547,1
11565,139,Larynx,Right cTBS,Tone,Noise,22,1,0,0.658312500047032,1
11566,139,Larynx,Right cTBS,Tone,Noise,23,3,0,0.7903745999792591,1
11567,139,Larynx,Right cTBS,Tone,Noise,24,5,1,0.794151599984616,1
11568,139,Larynx,Right cTBS,Tone,Noise,25,2,0,0.986317100003362,1
11569,139,Larynx,Right cTBS,Tone,Noise,26,3,0,0.6879943999811079,1
11570,139,Larynx,Right cTBS,Tone,Noise,27,4,0,0.695372399990447,1
11571,139,Larynx,Right cTBS,Tone,Noise,28,2,0,1.10788440000033,1
11572,139,Larynx,Right cTBS,Tone,Noise,29,4,0,0.748837199993432,1
11573,139,Larynx,Right cTBS,Tone,Noise,30,4,1,0.768692200013902,1
11574,139,Larynx,Right cTBS,Tone,Noise,31,3,0,0.5830702999955971,1
11575,139,Larynx,Right cTBS,Tone,Noise,32,4,0,0.5979389999993149,1
11576,139,Larynx,Right cTBS,Tone,Noise,33,5,0,0.8614923999994059,1
11577,139,Larynx,Right cTBS,Tone,Noise,34,1,0,0.693945699953474,1
11578,139,Larynx,Right cTBS,Tone,Noise,35,4,1,0.625848800002132,1
11579,139,Larynx,Right cTBS,Tone,Noise,36,2,0,0.591291299962904,1
11580,139,Larynx,Right cTBS,Tone,Noise,37,2,0,0.537387099990156,1
11581,139,Larynx,Right cTBS,Tone,Noise,38,3,0,0.582688099995721,1
11582,139,Larynx,Right cTBS,Tone,Noise,39,1,0,0.893720100051723,1
11583,139,Larynx,Right cTBS,Tone,Noise,40,3,0,1.00340709998272,1
11584,139,Larynx,Right cTBS,Tone,Noise,41,3,0,0.654052500030957,1
11585,139,Larynx,Right cTBS,Tone,Noise,42,5,0,0.6335010000038891,1
11586,139,Larynx,Right cTBS,Tone,Noise,43,1,0,0.777744200022426,1
11587,139,Larynx,Right cTBS,Tone,Noise,44,2,0,0.9253833999973721,1
11588,139,Larynx,Right cTBS,Tone,Noise,45,3,0,0.790375699987635,1
11589,139,Larynx,Right cTBS,Tone,Noise,46,2,0,0.687742899986915,1
11590,139,Larynx,Right cTBS,Tone,Noise,47,2,1,0.7685146000003441,1
11591,139,Larynx,Right cTBS,Tone,Noise,48,5,0,0.7700771000236272,1
11592,139,Larynx,Right cTBS,Tone,Noise,49,4,1,0.623278300045058,1
11593,139,Larynx,Right cTBS,Tone,Noise,50,5,0,0.852984700002708,1
11594,139,Larynx,Right cTBS,Tone,Noise,51,1,0,0.695241500041448,1
11595,139,Larynx,Right cTBS,Tone,Noise,52,1,0,0.634909600019455,1
11596,139,Larynx,Right cTBS,Tone,Noise,53,4,0,0.7639723000465891,1
11597,139,Larynx,Right cTBS,Tone,Noise,54,5,0,1.15026419999776,1
11598,139,Larynx,Right cTBS,Tone,Noise,55,2,0,0.984421800007112,1
11599,139,Larynx,Right cTBS,Tone,Noise,56,4,0,0.851108299975749,1
11600,139,Larynx,Right cTBS,Tone,Noise,57,4,1,0.748563600005582,1
11601,139,Larynx,Right cTBS,Tone,Noise,58,3,0,0.7700324999750591,1
11602,139,Larynx,Right cTBS,Tone,Noise,59,3,1,0.5633310000412171,1
11603,139,Larynx,Right cTBS,Tone,Noise,60,2,0,0.7859969999990429,1
11604,139,Larynx,Right cTBS,Tone,Noise,61,1,0,0.896329100010917,1
11605,139,Larynx,Right cTBS,Tone,Noise,62,4,1,0.7142514999723059,1
11606,139,Larynx,Right cTBS,Tone,Noise,63,3,1,0.971014900016598,1
11607,139,Larynx,Right cTBS,Tone,Noise,64,3,0,0.7296962999971579,1
11608,139,Larynx,Right cTBS,Tone,Noise,65,3,0,0.630307500017807,1
11609,139,Larynx,Right cTBS,Tone,Noise,66,1,1,1.2841205000295302,1
11610,139,Larynx,Right cTBS,Tone,Noise,67,5,1,1.00431279995246,1
11611,139,Larynx,Right cTBS,Tone,Noise,68,2,0,0.7101641000481321,1
11612,139,Larynx,Right cTBS,Tone,Noise,69,4,0,0.688541700015776,1
11613,139,Larynx,Right cTBS,Tone,Noise,70,2,1,0.971222300024237,1
11614,139,Larynx,Right cTBS,Tone,Noise,71,3,1,0.888805700000376,1
11615,139,Larynx,Right cTBS,Tone,Noise,72,3,0,0.5060474000056271,1
11616,139,Larynx,Right cTBS,Tone,Noise,73,2,1,0.814425499993376,1
11617,139,Larynx,Right cTBS,Tone,Noise,74,4,1,0.7207517999922858,1
11618,139,Larynx,Right cTBS,Tone,Noise,75,3,0,0.8507281999918629,1
11619,139,Larynx,Right cTBS,Tone,Noise,76,5,0,0.654245599987917,1
11620,139,Larynx,Right cTBS,Tone,Noise,77,1,1,0.704614600050263,1
11621,139,Larynx,Right cTBS,Tone,Noise,78,4,0,0.86898020002991,1
11622,139,Larynx,Right cTBS,Tone,Noise,79,5,1,0.953494300018065,1
11623,139,Larynx,Right cTBS,Tone,Noise,80,3,0,0.8241642999928441,1
11624,139,Larynx,Right cTBS,Tone,Noise,81,3,0,0.7359212999581359,1
11625,139,Larynx,Right cTBS,Tone,Noise,82,4,0,0.652315300016198,1
11626,139,Larynx,Right cTBS,Tone,Noise,83,3,1,0.9306385000236329,1
11627,139,Larynx,Right cTBS,Tone,Noise,84,4,1,0.640545000031125,1
11628,139,Larynx,Right cTBS,Tone,Noise,85,1,0,0.508617699961178,1
11629,139,Larynx,Right cTBS,Tone,Noise,86,3,0,0.486053600034211,1
11630,139,Larynx,Right cTBS,Tone,Noise,87,2,1,0.969623699958902,1
11631,139,Larynx,Right cTBS,Tone,Noise,88,1,0,1.2031984999775902,1
11632,139,Larynx,Right cTBS,Tone,Noise,89,4,0,0.819863700016867,1
11633,139,Larynx,Right cTBS,Tone,Noise,90,3,0,0.9848749000229872,1
11634,139,Larynx,Right cTBS,Tone,Noise,91,3,1,0.771179300034419,1
11635,139,Larynx,Right cTBS,Tone,Noise,92,1,1,0.9701580999535508,1
11636,139,Larynx,Right cTBS,Tone,Noise,93,5,0,0.723512299999129,1
11637,139,Larynx,Right cTBS,Tone,Noise,94,2,1,0.795624600024894,1
11638,139,Larynx,Right cTBS,Tone,Noise,95,1,1,0.8124286999809559,1
11639,139,Larynx,Right cTBS,Tone,Noise,96,4,0,0.468572399986442,1
11640,139,Larynx,Right cTBS,Tone,Noise,97,4,0,0.685761300032027,1
11641,139,Larynx,Right cTBS,Tone,Noise,98,2,1,0.81438190001063,1
11642,139,Larynx,Right cTBS,Tone,Noise,99,2,0,0.781803199963178,1
11643,139,Larynx,Right cTBS,Tone,Noise,100,4,1,0.7571931999991651,1
11644,139,Larynx,Right cTBS,Tone,Noise,101,3,0,0.6105031999759379,1
11645,139,Larynx,Right cTBS,Tone,Noise,102,2,1,0.7149489999865178,1
11646,139,Larynx,Right cTBS,Tone,Noise,103,3,0,0.920352099987213,1
11647,139,Larynx,Right cTBS,Tone,Noise,104,3,0,0.9990997000131759,1
11648,139,Larynx,Right cTBS,Tone,Noise,105,5,1,0.6912395000108521,1
11649,139,Larynx,Right cTBS,Tone,Noise,106,2,1,1.1344134999672,1
11650,139,Larynx,Right cTBS,Tone,Noise,107,2,0,0.9465782000334001,1
11651,139,Larynx,Right cTBS,Tone,Noise,108,4,0,1.0137778999633198,1
11652,139,Larynx,Right cTBS,Tone,Noise,109,5,0,1.14605239999946,1
11653,139,Larynx,Right cTBS,Tone,Noise,110,1,1,1.07998480001697,1
11654,139,Larynx,Right cTBS,Tone,Noise,111,5,1,1.1394051999668602,1
11655,139,Larynx,Right cTBS,Tone,Noise,112,1,0,0.6981839999789371,1
11656,139,Larynx,Right cTBS,Tone,Noise,113,4,0,1.4947704999940499,1
11657,139,Larynx,Right cTBS,Tone,Noise,114,3,1,0.960768799996004,1
11658,139,Larynx,Right cTBS,Tone,Noise,115,2,0,1.08756340004038,1
11659,139,Larynx,Right cTBS,Tone,Noise,116,3,1,1.2424769999925,1
11660,139,Larynx,Right cTBS,Tone,Noise,117,5,0,0.8121402999968271,1
11661,139,Larynx,Right cTBS,Tone,Noise,118,4,1,0.934333399985917,1
11662,139,Larynx,Right cTBS,Tone,Noise,119,5,0,0.9855972999939699,1
11663,139,Larynx,Right cTBS,Tone,Noise,120,2,0,1.0360258999862701,1
11664,139,Larynx,Right cTBS,Tone,Noise,121,3,1,1.2353001000010402,1
11665,139,Larynx,Right cTBS,Tone,Noise,122,4,1,1.03310590004548,1
11666,139,Larynx,Right cTBS,Tone,Noise,123,4,0,0.642947999993339,1
11667,139,Larynx,Right cTBS,Tone,Noise,124,2,0,0.76610070001334,1
11668,139,Larynx,Right cTBS,Tone,Noise,125,2,0,0.791198600025382,1
11669,139,Larynx,Right cTBS,Tone,Noise,126,3,1,0.7502338000340391,1
11670,139,Larynx,Right cTBS,Tone,Noise,127,5,1,0.708543700049631,1
11671,139,Larynx,Right cTBS,Tone,Noise,128,1,0,0.7603632999816909,1
11672,139,Larynx,Right cTBS,Tone,Noise,129,4,1,0.9552972000092271,1
11673,139,Larynx,Right cTBS,Tone,Noise,130,3,0,0.960254599980544,1
11674,139,Larynx,Right cTBS,Tone,Noise,131,1,1,1.10936449997826,1
11675,139,Larynx,Right cTBS,Tone,Noise,132,3,1,1.0265589000191502,1
11676,139,Larynx,Right cTBS,Tone,Noise,133,3,0,0.9045157000073231,1
11677,139,Larynx,Right cTBS,Tone,Noise,134,1,0,1.27325890003704,1
11678,139,Larynx,Right cTBS,Tone,Noise,135,2,0,0.9399068999919109,1
11679,139,Larynx,Right cTBS,Tone,Noise,136,5,1,0.7434502000105571,1
11680,139,Larynx,Right cTBS,Tone,Noise,137,5,0,1.1058597000083001,1
11681,139,Larynx,Right cTBS,Tone,Noise,138,4,0,0.89461780001875,1
11682,139,Larynx,Right cTBS,Tone,Noise,139,3,1,0.882228399976157,1
11683,139,Larynx,Right cTBS,Tone,Noise,140,3,0,1.1271487000049099,1
11684,139,Larynx,Right cTBS,Tone,Noise,141,5,0,1.17373979999684,1
11685,139,Larynx,Right cTBS,Tone,Noise,142,4,1,0.8848747999873009,1
11686,139,Larynx,Right cTBS,Tone,Noise,143,3,1,0.68515659996774,1
11687,139,Larynx,Right cTBS,Tone,Noise,144,2,0,0.689498499967158,1
11688,139,Larynx,Right cTBS,Tone,Noise,145,4,0,0.7399917000439019,1
11689,139,Larynx,Right cTBS,Tone,Noise,146,1,1,1.19420760002686,1
11690,139,Larynx,Right cTBS,Tone,Noise,147,1,1,0.8873213999904691,1
11691,139,Larynx,Right cTBS,Tone,Noise,148,3,0,0.7505954999942329,1
11692,139,Larynx,Right cTBS,Tone,Noise,149,2,0,1.0023757999879301,1
11693,139,Larynx,Right cTBS,Tone,Noise,150,1,1,0.690328600001521,1
11694,139,Larynx,Right cTBS,Tone,Noise,151,5,0,0.881285099952947,1
11695,139,Larynx,Right cTBS,Tone,Noise,152,2,1,0.8175426000379961,1
11696,139,Larynx,Right cTBS,Tone,Noise,153,4,0,1.02034330001334,1
11697,139,Larynx,Right cTBS,Tone,Noise,154,3,1,0.728296099987347,1
11698,139,Larynx,Right cTBS,Tone,Noise,155,3,0,0.760223400022369,1
11699,139,Larynx,Right cTBS,Tone,Noise,156,2,0,1.10639650002122,1
12168,139,Larynx,Sham,Tone,Noise,1,3,0,0.810688900004607,1
12169,139,Larynx,Sham,Tone,Noise,2,4,1,0.718038500002876,1
12170,139,Larynx,Sham,Tone,Noise,3,4,1,0.909734900000331,1
12171,139,Larynx,Sham,Tone,Noise,4,5,0,1.04330669999763,1
12172,139,Larynx,Sham,Tone,Noise,5,4,0,0.8514980000036301,1
12173,139,Larynx,Sham,Tone,Noise,6,4,1,1.41907619999984,1
12174,139,Larynx,Sham,Tone,Noise,7,5,1,1.5482886000027098,1
12175,139,Larynx,Sham,Tone,Noise,8,5,0,0.9204045000005859,1
12176,139,Larynx,Sham,Tone,Noise,9,1,0,0.7910610999970229,1
12177,139,Larynx,Sham,Tone,Noise,10,3,0,1.01730810000299,1
12178,139,Larynx,Sham,Tone,Noise,11,5,1,0.796700700004294,1
12179,139,Larynx,Sham,Tone,Noise,12,2,0,0.857862800003204,1
12180,139,Larynx,Sham,Tone,Noise,13,3,0,1.0595945999957601,1
12181,139,Larynx,Sham,Tone,Noise,14,1,0,0.8723399000009521,1
12182,139,Larynx,Sham,Tone,Noise,15,1,1,1.06623699999909,1
12183,139,Larynx,Sham,Tone,Noise,16,2,0,0.73965550000139,1
12184,139,Larynx,Sham,Tone,Noise,17,3,1,1.0262691000025401,1
12185,139,Larynx,Sham,Tone,Noise,18,1,0,0.728674900004989,1
12186,139,Larynx,Sham,Tone,Noise,19,3,0,0.957001999995555,1
12187,139,Larynx,Sham,Tone,Noise,20,3,1,0.757562200000393,1
12188,139,Larynx,Sham,Tone,Noise,21,3,1,0.7450222000043141,1
12189,139,Larynx,Sham,Tone,Noise,22,4,0,0.835135699999228,1
12190,139,Larynx,Sham,Tone,Noise,23,4,1,0.942692900003749,1
12191,139,Larynx,Sham,Tone,Noise,24,5,0,1.08394480000425,1
12192,139,Larynx,Sham,Tone,Noise,25,3,0,0.810235299999476,1
12193,139,Larynx,Sham,Tone,Noise,26,3,1,0.7293922999961071,1
12194,139,Larynx,Sham,Tone,Noise,27,3,0,0.7133040999979129,1
12195,139,Larynx,Sham,Tone,Noise,28,1,0,0.88699639999686,1
12196,139,Larynx,Sham,Tone,Noise,29,4,1,0.825037700000394,1
12197,139,Larynx,Sham,Tone,Noise,30,2,0,0.8951537999964779,1
12198,139,Larynx,Sham,Tone,Noise,31,2,0,1.18174259999796,1
12199,139,Larynx,Sham,Tone,Noise,32,3,0,1.0989472999935999,1
12200,139,Larynx,Sham,Tone,Noise,33,4,1,0.7725662000011649,1
12201,139,Larynx,Sham,Tone,Noise,34,5,1,0.751824099999794,1
12202,139,Larynx,Sham,Tone,Noise,35,2,0,0.783090099997935,1
12203,139,Larynx,Sham,Tone,Noise,36,2,0,0.7897123000002471,1
12204,139,Larynx,Sham,Tone,Noise,37,2,0,1.0931130000026301,1
12205,139,Larynx,Sham,Tone,Noise,38,1,0,0.905059500000789,1
12206,139,Larynx,Sham,Tone,Noise,39,2,1,0.639854799999739,1
12207,139,Larynx,Sham,Tone,Noise,40,4,1,0.863886599996476,1
12208,139,Larynx,Sham,Tone,Noise,41,3,0,1.0702281000049,1
12209,139,Larynx,Sham,Tone,Noise,42,4,1,0.9901207000002609,1
12210,139,Larynx,Sham,Tone,Noise,43,1,1,0.9285770999995291,1
12211,139,Larynx,Sham,Tone,Noise,44,1,0,0.8552994999990908,1
12212,139,Larynx,Sham,Tone,Noise,45,2,1,1.057624699999,1
12213,139,Larynx,Sham,Tone,Noise,46,4,0,0.9973462999987529,1
12214,139,Larynx,Sham,Tone,Noise,47,4,0,1.00730789999943,1
12215,139,Larynx,Sham,Tone,Noise,48,5,1,1.07650950000243,1
12216,139,Larynx,Sham,Tone,Noise,49,4,1,0.9472391999952379,1
12217,139,Larynx,Sham,Tone,Noise,50,2,0,0.638466500000504,1
12218,139,Larynx,Sham,Tone,Noise,51,1,0,0.583091499996954,1
12219,139,Larynx,Sham,Tone,Noise,52,3,0,0.8790100999976859,1
12220,139,Larynx,Sham,Tone,Noise,53,5,1,1.01021760000003,1
12221,139,Larynx,Sham,Tone,Noise,54,2,0,0.908399799998733,1
12222,139,Larynx,Sham,Tone,Noise,55,2,0,0.7808270000023191,1
12223,139,Larynx,Sham,Tone,Noise,56,3,0,1.13168240000232,1
12224,139,Larynx,Sham,Tone,Noise,57,5,1,0.9853599999987641,1
12225,139,Larynx,Sham,Tone,Noise,58,3,0,0.7930651999995459,1
12226,139,Larynx,Sham,Tone,Noise,59,3,0,0.949514500003716,1
12227,139,Larynx,Sham,Tone,Noise,60,2,0,0.859469900002296,1
12228,139,Larynx,Sham,Tone,Noise,61,3,1,1.14110960000107,1
12229,139,Larynx,Sham,Tone,Noise,62,4,0,1.6055388000022501,1
12230,139,Larynx,Sham,Tone,Noise,63,3,0,0.8835221999979691,1
12231,139,Larynx,Sham,Tone,Noise,64,5,1,0.8448846999963281,1
12232,139,Larynx,Sham,Tone,Noise,65,3,0,0.7849260000002691,1
12233,139,Larynx,Sham,Tone,Noise,66,3,1,1.21015530000295,1
12234,139,Larynx,Sham,Tone,Noise,67,4,0,0.8225803999957859,1
12235,139,Larynx,Sham,Tone,Noise,68,1,0,0.6741909999982449,1
12236,139,Larynx,Sham,Tone,Noise,69,3,0,0.7287930000020421,1
12237,139,Larynx,Sham,Tone,Noise,70,5,1,0.697332100004132,1
12238,139,Larynx,Sham,Tone,Noise,71,3,1,0.903125099997851,1
12239,139,Larynx,Sham,Tone,Noise,72,4,0,0.835960299998987,1
12240,139,Larynx,Sham,Tone,Noise,73,5,0,1.1991995999996998,1
12241,139,Larynx,Sham,Tone,Noise,74,2,0,0.748890599999868,1
12242,139,Larynx,Sham,Tone,Noise,75,1,0,0.69276600000012,1
12243,139,Larynx,Sham,Tone,Noise,76,2,1,1.02053680000245,1
12244,139,Larynx,Sham,Tone,Noise,77,1,0,1.25028490000113,1
12245,139,Larynx,Sham,Tone,Noise,78,2,0,0.724749100001645,1
12246,139,Larynx,Sham,Tone,Noise,79,5,1,0.744789600001241,1
12247,139,Larynx,Sham,Tone,Noise,80,2,0,0.717242899998382,1
12248,139,Larynx,Sham,Tone,Noise,81,2,0,0.7849439000056009,1
12249,139,Larynx,Sham,Tone,Noise,82,2,0,0.7460343999991891,1
12250,139,Larynx,Sham,Tone,Noise,83,4,1,0.975161700000172,1
12251,139,Larynx,Sham,Tone,Noise,84,2,0,0.821195599994098,1
12252,139,Larynx,Sham,Tone,Noise,85,2,0,0.6916142999980369,1
12253,139,Larynx,Sham,Tone,Noise,86,1,0,0.773533400002634,1
12254,139,Larynx,Sham,Tone,Noise,87,5,1,0.8491817000031009,1
12255,139,Larynx,Sham,Tone,Noise,88,5,0,1.00944270000036,1
12256,139,Larynx,Sham,Tone,Noise,89,3,0,0.660029899998335,1
12257,139,Larynx,Sham,Tone,Noise,90,3,1,0.847778600000311,1
12258,139,Larynx,Sham,Tone,Noise,91,3,1,1.2039598999981498,1
12259,139,Larynx,Sham,Tone,Noise,92,4,0,0.779640200002177,1
12260,139,Larynx,Sham,Tone,Noise,93,4,0,0.7495955999984292,1
12261,139,Larynx,Sham,Tone,Noise,94,5,1,1.18319270000211,1
12262,139,Larynx,Sham,Tone,Noise,95,4,0,0.8077592999979971,1
12263,139,Larynx,Sham,Tone,Noise,96,5,1,1.40691009999864,1
12264,139,Larynx,Sham,Tone,Noise,97,1,0,0.7663637999939971,1
12265,139,Larynx,Sham,Tone,Noise,98,3,0,0.7407087000028699,1
12266,139,Larynx,Sham,Tone,Noise,99,1,0,0.619490999997652,1
12267,139,Larynx,Sham,Tone,Noise,100,3,1,0.8080300000001441,1
12268,139,Larynx,Sham,Tone,Noise,101,1,0,0.7505212999967629,1
12269,139,Larynx,Sham,Tone,Noise,102,4,1,0.8550509999986391,1
12270,139,Larynx,Sham,Tone,Noise,103,3,0,0.887167799999588,1
12271,139,Larynx,Sham,Tone,Noise,104,4,0,0.7234344000025891,1
12272,139,Larynx,Sham,Tone,Noise,105,2,1,0.8398143000013081,1
12273,139,Larynx,Sham,Tone,Noise,106,3,1,0.8514958000014301,1
12274,139,Larynx,Sham,Tone,Noise,107,3,0,0.936057099999744,1
12275,139,Larynx,Sham,Tone,Noise,108,5,1,0.7186510000028651,1
12276,139,Larynx,Sham,Tone,Noise,109,3,0,0.934876999999688,1
12277,139,Larynx,Sham,Tone,Noise,110,2,0,0.801466299999447,1
12278,139,Larynx,Sham,Tone,Noise,111,1,0,0.891383000001952,1
12279,139,Larynx,Sham,Tone,Noise,112,4,1,0.882888599997386,1
12280,139,Larynx,Sham,Tone,Noise,113,3,1,1.1039086000018898,1
12281,139,Larynx,Sham,Tone,Noise,114,4,0,0.779413299998851,1
12282,139,Larynx,Sham,Tone,Noise,115,1,0,0.6990575000018001,1
12283,139,Larynx,Sham,Tone,Noise,116,2,0,0.774821899998642,1
12284,139,Larynx,Sham,Tone,Noise,117,3,1,0.908855599998788,1
12285,139,Larynx,Sham,Tone,Noise,118,1,0,1.0903041000056,1
12286,139,Larynx,Sham,Tone,Noise,119,3,1,0.8362828000026641,1
12287,139,Larynx,Sham,Tone,Noise,120,1,0,0.742896399999154,1
12288,139,Larynx,Sham,Tone,Noise,121,3,0,1.28169630000048,1
12289,139,Larynx,Sham,Tone,Noise,122,2,0,1.0184633999961101,1
12290,139,Larynx,Sham,Tone,Noise,123,4,1,0.931550099994638,1
12291,139,Larynx,Sham,Tone,Noise,124,4,1,1.2556497000041398,1
12292,139,Larynx,Sham,Tone,Noise,125,3,0,1.2206468000004,1
12293,139,Larynx,Sham,Tone,Noise,126,3,1,1.06802269999753,1
12294,139,Larynx,Sham,Tone,Noise,127,2,0,0.857729099996504,1
12295,139,Larynx,Sham,Tone,Noise,128,4,0,1.0432154999943999,1
12296,139,Larynx,Sham,Tone,Noise,129,5,1,0.895819600002142,1
12297,139,Larynx,Sham,Tone,Noise,130,2,0,0.8414753999968531,1
12298,139,Larynx,Sham,Tone,Noise,131,1,0,0.9380604000034509,1
12299,139,Larynx,Sham,Tone,Noise,132,2,1,0.889088400006585,1
12300,139,Larynx,Sham,Tone,Noise,133,5,1,0.6716091999987839,1
12301,139,Larynx,Sham,Tone,Noise,134,3,0,0.9116228999992021,1
12302,139,Larynx,Sham,Tone,Noise,135,3,1,0.9085844000001091,1
12303,139,Larynx,Sham,Tone,Noise,136,3,1,1.03023659999599,1
12304,139,Larynx,Sham,Tone,Noise,137,2,0,0.7805515000000011,1
12305,139,Larynx,Sham,Tone,Noise,138,3,0,0.679277700000966,1
12306,139,Larynx,Sham,Tone,Noise,139,4,0,1.0170422999945,1
12307,139,Larynx,Sham,Tone,Noise,140,3,1,0.714733399996476,1
12308,139,Larynx,Sham,Tone,Noise,141,4,0,0.7907124999983349,1
12309,139,Larynx,Sham,Tone,Noise,142,1,0,0.647621599993727,1
12310,139,Larynx,Sham,Tone,Noise,143,5,0,0.787602099997457,1
12311,139,Larynx,Sham,Tone,Noise,144,2,0,1.04560299999866,1
12312,139,Larynx,Sham,Tone,Noise,145,3,0,0.8809715999959742,1
12313,139,Larynx,Sham,Tone,Noise,146,4,0,1.04602180000074,1
12314,139,Larynx,Sham,Tone,Noise,147,1,0,0.9892378000004101,1
12315,139,Larynx,Sham,Tone,Noise,148,1,1,1.15018859999691,1
12316,139,Larynx,Sham,Tone,Noise,149,2,0,0.74352170000202,1
12317,139,Larynx,Sham,Tone,Noise,150,5,1,0.8351035000014241,1
12318,139,Larynx,Sham,Tone,Noise,151,5,0,1.05541059999814,1
12319,139,Larynx,Sham,Tone,Noise,152,5,1,1.00256680000166,1
12320,139,Larynx,Sham,Tone,Noise,153,4,0,1.16127649999544,1
12321,139,Larynx,Sham,Tone,Noise,154,3,0,1.5063815999965302,1
12322,139,Larynx,Sham,Tone,Noise,155,2,1,0.8254742999997691,1
12323,139,Larynx,Sham,Tone,Noise,156,4,0,1.2542466000013501,1
14664,142,Larynx,Right cTBS,Tone,Noise,1,4,0,2.28350530000171,1
14665,142,Larynx,Right cTBS,Tone,Noise,2,2,1,1.1407047000248,1
14666,142,Larynx,Right cTBS,Tone,Noise,3,4,1,1.22905269998591,1
14667,142,Larynx,Right cTBS,Tone,Noise,4,5,0,1.6597898000036397,1
14668,142,Larynx,Right cTBS,Tone,Noise,5,1,0,1.1436146000050902,1
14669,142,Larynx,Right cTBS,Tone,Noise,6,2,1,1.5780715000000802,1
14670,142,Larynx,Right cTBS,Tone,Noise,7,5,1,1.0607128000119699,1
14671,142,Larynx,Right cTBS,Tone,Noise,8,1,0,1.2782556000165601,1
14672,142,Larynx,Right cTBS,Tone,Noise,9,4,0,1.23731389996829,1
14673,142,Larynx,Right cTBS,Tone,Noise,10,3,0,1.14289519999875,1
14674,142,Larynx,Right cTBS,Tone,Noise,11,3,1,0.699495300010312,1
14675,142,Larynx,Right cTBS,Tone,Noise,12,4,1,0.6185422000125981,1
14676,142,Larynx,Right cTBS,Tone,Noise,13,5,1,0.801560699997935,1
14677,142,Larynx,Right cTBS,Tone,Noise,14,4,0,0.714635700045619,1
14678,142,Larynx,Right cTBS,Tone,Noise,15,3,0,1.16150700004073,1
14679,142,Larynx,Right cTBS,Tone,Noise,16,4,0,0.9233195999986491,1
14680,142,Larynx,Right cTBS,Tone,Noise,17,1,0,1.09293969999999,1
14681,142,Larynx,Right cTBS,Tone,Noise,18,3,1,0.7491276999935509,1
14682,142,Larynx,Right cTBS,Tone,Noise,19,3,1,0.747411700023804,1
14683,142,Larynx,Right cTBS,Tone,Noise,20,2,0,0.809414500021376,1
14684,142,Larynx,Right cTBS,Tone,Noise,21,5,0,0.8047399999923069,1
14685,142,Larynx,Right cTBS,Tone,Noise,22,3,0,0.8254043000051751,1
14686,142,Larynx,Right cTBS,Tone,Noise,23,5,0,0.6782774000312201,1
14687,142,Larynx,Right cTBS,Tone,Noise,24,3,0,0.49487389996647796,1
14688,142,Larynx,Right cTBS,Tone,Noise,25,2,1,0.7884906999534,1
14689,142,Larynx,Right cTBS,Tone,Noise,26,2,1,0.579407799988985,1
14690,142,Larynx,Right cTBS,Tone,Noise,27,2,1,0.67433589999564,1
14691,142,Larynx,Right cTBS,Tone,Noise,28,4,0,1.00385490001645,1
14692,142,Larynx,Right cTBS,Tone,Noise,29,1,0,0.5968372999923299,1
14693,142,Larynx,Right cTBS,Tone,Noise,30,3,0,0.6609059000038541,1
14694,142,Larynx,Right cTBS,Tone,Noise,31,1,0,0.5459059000131671,1
14695,142,Larynx,Right cTBS,Tone,Noise,32,2,0,0.675751400005538,1
14696,142,Larynx,Right cTBS,Tone,Noise,33,3,1,0.616224299999885,1
14697,142,Larynx,Right cTBS,Tone,Noise,34,1,0,0.8425230999710039,1
14698,142,Larynx,Right cTBS,Tone,Noise,35,3,1,0.661057999997865,1
14699,142,Larynx,Right cTBS,Tone,Noise,36,2,0,0.7261765999719499,1
14700,142,Larynx,Right cTBS,Tone,Noise,37,4,1,0.718831399979535,1
14701,142,Larynx,Right cTBS,Tone,Noise,38,5,0,0.5793958999565799,1
14702,142,Larynx,Right cTBS,Tone,Noise,39,3,0,0.8227320999722,1
14703,142,Larynx,Right cTBS,Tone,Noise,40,4,1,0.6686021999921651,1
14704,142,Larynx,Right cTBS,Tone,Noise,41,4,0,0.8704309000168,1
14705,142,Larynx,Right cTBS,Tone,Noise,42,2,0,0.638926799991168,1
14706,142,Larynx,Right cTBS,Tone,Noise,43,3,0,0.510481600009371,1
14707,142,Larynx,Right cTBS,Tone,Noise,44,3,0,0.721221299958415,1
14708,142,Larynx,Right cTBS,Tone,Noise,45,3,1,0.608749599952716,1
14709,142,Larynx,Right cTBS,Tone,Noise,46,2,1,0.9036081999656741,1
14710,142,Larynx,Right cTBS,Tone,Noise,47,3,0,0.926526500028558,1
14711,142,Larynx,Right cTBS,Tone,Noise,48,5,0,0.7713086999719959,1
14712,142,Larynx,Right cTBS,Tone,Noise,49,3,0,0.7593993000336919,1
14713,142,Larynx,Right cTBS,Tone,Noise,50,2,0,0.6256096000433901,1
14714,142,Larynx,Right cTBS,Tone,Noise,51,2,0,0.937907800020184,1
14715,142,Larynx,Right cTBS,Tone,Noise,52,5,1,0.75029659998836,1
14716,142,Larynx,Right cTBS,Tone,Noise,53,4,0,0.647443199995905,1
14717,142,Larynx,Right cTBS,Tone,Noise,54,3,0,0.6534406000282621,1
14718,142,Larynx,Right cTBS,Tone,Noise,55,1,1,0.911681900033727,1
14719,142,Larynx,Right cTBS,Tone,Noise,56,5,1,0.8187118999776429,1
14720,142,Larynx,Right cTBS,Tone,Noise,57,3,1,0.851874499989208,1
14721,142,Larynx,Right cTBS,Tone,Noise,58,3,1,0.684346100024413,1
14722,142,Larynx,Right cTBS,Tone,Noise,59,1,0,0.605513200047426,1
14723,142,Larynx,Right cTBS,Tone,Noise,60,5,1,0.8530384000041519,1
14724,142,Larynx,Right cTBS,Tone,Noise,61,3,1,0.7686548999627121,1
14725,142,Larynx,Right cTBS,Tone,Noise,62,2,0,0.8816574999946171,1
14726,142,Larynx,Right cTBS,Tone,Noise,63,1,0,0.6003981999820099,1
14727,142,Larynx,Right cTBS,Tone,Noise,64,2,0,0.501063000003342,1
14728,142,Larynx,Right cTBS,Tone,Noise,65,2,0,0.8355151999858209,1
14729,142,Larynx,Right cTBS,Tone,Noise,66,4,1,0.47565130004659295,1
14730,142,Larynx,Right cTBS,Tone,Noise,67,1,0,0.7356625000247728,1
14731,142,Larynx,Right cTBS,Tone,Noise,68,1,0,0.642396400042344,1
14732,142,Larynx,Right cTBS,Tone,Noise,69,3,0,0.5568419999908659,1
14733,142,Larynx,Right cTBS,Tone,Noise,70,4,1,0.591329100017902,1
14734,142,Larynx,Right cTBS,Tone,Noise,71,5,1,0.7153714000014592,1
14735,142,Larynx,Right cTBS,Tone,Noise,72,4,1,0.6554964999668299,1
14736,142,Larynx,Right cTBS,Tone,Noise,73,4,0,0.597396299999673,1
14737,142,Larynx,Right cTBS,Tone,Noise,74,3,1,0.592759699968155,1
14738,142,Larynx,Right cTBS,Tone,Noise,75,2,0,0.71622279996518,1
14739,142,Larynx,Right cTBS,Tone,Noise,76,1,0,0.5166881000041029,1
14740,142,Larynx,Right cTBS,Tone,Noise,77,5,1,0.540607700007968,1
14741,142,Larynx,Right cTBS,Tone,Noise,78,4,1,0.5785282999859189,1
14742,142,Larynx,Right cTBS,Tone,Noise,79,3,1,0.503713200043421,1
14743,142,Larynx,Right cTBS,Tone,Noise,80,4,0,0.8915002999710849,1
14744,142,Larynx,Right cTBS,Tone,Noise,81,3,1,0.953296199964825,1
14745,142,Larynx,Right cTBS,Tone,Noise,82,1,0,0.658237600000575,1
14746,142,Larynx,Right cTBS,Tone,Noise,83,2,0,0.5927761000348261,1
14747,142,Larynx,Right cTBS,Tone,Noise,84,3,0,0.739579099987168,1
14748,142,Larynx,Right cTBS,Tone,Noise,85,3,1,0.749716299993452,1
14749,142,Larynx,Right cTBS,Tone,Noise,86,1,0,0.72654090001015,1
14750,142,Larynx,Right cTBS,Tone,Noise,87,1,0,0.620647599978838,1
14751,142,Larynx,Right cTBS,Tone,Noise,88,4,0,0.5234854000154879,1
14752,142,Larynx,Right cTBS,Tone,Noise,89,4,1,0.643484300002456,1
14753,142,Larynx,Right cTBS,Tone,Noise,90,3,1,0.736221999977715,1
14754,142,Larynx,Right cTBS,Tone,Noise,91,2,0,0.705590099969413,1
14755,142,Larynx,Right cTBS,Tone,Noise,92,5,1,0.991325000009965,1
14756,142,Larynx,Right cTBS,Tone,Noise,93,2,1,0.7259202999994159,1
14757,142,Larynx,Right cTBS,Tone,Noise,94,2,1,0.612025300040841,1
14758,142,Larynx,Right cTBS,Tone,Noise,95,5,1,1.05612870003097,1
14759,142,Larynx,Right cTBS,Tone,Noise,96,1,0,0.608194399974309,1
14760,142,Larynx,Right cTBS,Tone,Noise,97,4,1,0.892462499963585,1
14761,142,Larynx,Right cTBS,Tone,Noise,98,4,1,0.7886088999803179,1
14762,142,Larynx,Right cTBS,Tone,Noise,99,3,0,0.772412300051656,1
14763,142,Larynx,Right cTBS,Tone,Noise,100,5,1,0.8271876000217159,1
14764,142,Larynx,Right cTBS,Tone,Noise,101,3,1,0.730992600030731,1
14765,142,Larynx,Right cTBS,Tone,Noise,102,4,1,0.5856926999986171,1
14766,142,Larynx,Right cTBS,Tone,Noise,103,3,0,0.7284818000043741,1
14767,142,Larynx,Right cTBS,Tone,Noise,104,2,0,0.661318900005426,1
14768,142,Larynx,Right cTBS,Tone,Noise,105,1,0,0.685410599980969,1
14769,142,Larynx,Right cTBS,Tone,Noise,106,3,1,0.7030912999762221,1
14770,142,Larynx,Right cTBS,Tone,Noise,107,4,0,0.717298200004734,1
14771,142,Larynx,Right cTBS,Tone,Noise,108,5,1,0.667390100017656,1
14772,142,Larynx,Right cTBS,Tone,Noise,109,2,0,0.851168199966196,1
14773,142,Larynx,Right cTBS,Tone,Noise,110,5,1,0.724065600021277,1
14774,142,Larynx,Right cTBS,Tone,Noise,111,5,1,0.662434800004121,1
14775,142,Larynx,Right cTBS,Tone,Noise,112,4,0,0.6795431999489671,1
14776,142,Larynx,Right cTBS,Tone,Noise,113,1,0,0.694112099998165,1
14777,142,Larynx,Right cTBS,Tone,Noise,114,3,0,0.7155489000142551,1
14778,142,Larynx,Right cTBS,Tone,Noise,115,2,0,0.785664100025315,1
14779,142,Larynx,Right cTBS,Tone,Noise,116,2,0,0.798387300048489,1
14780,142,Larynx,Right cTBS,Tone,Noise,117,3,0,0.6557160000083969,1
14781,142,Larynx,Right cTBS,Tone,Noise,118,5,1,1.12107890000334,1
14782,142,Larynx,Right cTBS,Tone,Noise,119,3,1,0.882226100016851,1
14783,142,Larynx,Right cTBS,Tone,Noise,120,3,1,0.920931500033475,1
14784,142,Larynx,Right cTBS,Tone,Noise,121,1,0,0.494809600000735,1
14785,142,Larynx,Right cTBS,Tone,Noise,122,1,0,0.618314400024246,1
14786,142,Larynx,Right cTBS,Tone,Noise,123,4,1,0.6442096999962811,1
14787,142,Larynx,Right cTBS,Tone,Noise,124,3,1,0.58288739999989,1
14788,142,Larynx,Right cTBS,Tone,Noise,125,3,1,0.700289600004908,1
14789,142,Larynx,Right cTBS,Tone,Noise,126,2,0,0.8331841999897729,1
14790,142,Larynx,Right cTBS,Tone,Noise,127,3,0,0.644866999995429,1
14791,142,Larynx,Right cTBS,Tone,Noise,128,5,1,0.767977999988943,1
14792,142,Larynx,Right cTBS,Tone,Noise,129,5,1,0.5574653000221589,1
14793,142,Larynx,Right cTBS,Tone,Noise,130,1,0,0.716105500003323,1
14794,142,Larynx,Right cTBS,Tone,Noise,131,5,1,0.5867244999972171,1
14795,142,Larynx,Right cTBS,Tone,Noise,132,2,0,0.5626131999888461,1
14796,142,Larynx,Right cTBS,Tone,Noise,133,3,0,0.744556299992837,1
14797,142,Larynx,Right cTBS,Tone,Noise,134,2,0,0.788227699988056,1
14798,142,Larynx,Right cTBS,Tone,Noise,135,4,1,0.716265700000804,1
14799,142,Larynx,Right cTBS,Tone,Noise,136,4,1,0.855197299970314,1
14800,142,Larynx,Right cTBS,Tone,Noise,137,5,1,0.659887399990112,1
14801,142,Larynx,Right cTBS,Tone,Noise,138,2,0,0.651069899962749,1
14802,142,Larynx,Right cTBS,Tone,Noise,139,1,0,0.575430500030052,1
14803,142,Larynx,Right cTBS,Tone,Noise,140,4,1,0.7199310999712908,1
14804,142,Larynx,Right cTBS,Tone,Noise,141,2,0,0.48603630001889503,1
14805,142,Larynx,Right cTBS,Tone,Noise,142,4,1,0.6515292999683879,1
14806,142,Larynx,Right cTBS,Tone,Noise,143,1,0,0.508036000013817,1
14807,142,Larynx,Right cTBS,Tone,Noise,144,2,0,0.525742599973455,1
14808,142,Larynx,Right cTBS,Tone,Noise,145,4,1,0.699770600011107,1
14809,142,Larynx,Right cTBS,Tone,Noise,146,2,0,0.6669661999912929,1
14810,142,Larynx,Right cTBS,Tone,Noise,147,3,0,0.6474395999684929,1
14811,142,Larynx,Right cTBS,Tone,Noise,148,3,1,0.6541474999976341,1
14812,142,Larynx,Right cTBS,Tone,Noise,149,1,1,0.38596579997101793,1
14813,142,Larynx,Right cTBS,Tone,Noise,150,4,1,0.704579700017348,1
14814,142,Larynx,Right cTBS,Tone,Noise,151,3,1,0.7052564999903549,1
14815,142,Larynx,Right cTBS,Tone,Noise,152,2,0,0.7217762999935079,1
14816,142,Larynx,Right cTBS,Tone,Noise,153,3,1,0.8267211999627758,1
14817,142,Larynx,Right cTBS,Tone,Noise,154,4,1,0.779257399961352,1
14818,142,Larynx,Right cTBS,Tone,Noise,155,3,1,0.5766708999872211,1
14819,142,Larynx,Right cTBS,Tone,Noise,156,5,1,0.7256470999564041,1
15288,142,Larynx,Sham,Tone,Noise,1,2,0,0.8485331000010771,1
15289,142,Larynx,Sham,Tone,Noise,2,3,0,0.8498532999983579,1
15290,142,Larynx,Sham,Tone,Noise,3,5,1,0.62902330000361,1
15291,142,Larynx,Sham,Tone,Noise,4,5,1,0.7811605000024431,1
15292,142,Larynx,Sham,Tone,Noise,5,2,0,0.8204712000006109,1
15293,142,Larynx,Sham,Tone,Noise,6,4,1,0.621602300001541,1
15294,142,Larynx,Sham,Tone,Noise,7,1,0,0.7109864000012751,1
15295,142,Larynx,Sham,Tone,Noise,8,2,1,0.606359800000064,1
15296,142,Larynx,Sham,Tone,Noise,9,3,0,0.64297230000011,1
15297,142,Larynx,Sham,Tone,Noise,10,3,1,0.5429867000020749,1
15298,142,Larynx,Sham,Tone,Noise,11,1,0,0.6598586000000071,1
15299,142,Larynx,Sham,Tone,Noise,12,4,1,0.753619200000685,1
15300,142,Larynx,Sham,Tone,Noise,13,3,1,0.46857939999972603,1
15301,142,Larynx,Sham,Tone,Noise,14,3,1,0.52624250000008,1
15302,142,Larynx,Sham,Tone,Noise,15,1,0,0.9996721999996229,1
15303,142,Larynx,Sham,Tone,Noise,16,2,1,0.791801999999734,1
15304,142,Larynx,Sham,Tone,Noise,17,3,1,0.9299192999969821,1
15305,142,Larynx,Sham,Tone,Noise,18,5,0,1.16293719999885,1
15306,142,Larynx,Sham,Tone,Noise,19,5,1,0.609384499999578,1
15307,142,Larynx,Sham,Tone,Noise,20,3,1,0.588406699996995,1
15308,142,Larynx,Sham,Tone,Noise,21,4,1,0.8717237999990181,1
15309,142,Larynx,Sham,Tone,Noise,22,1,0,0.5860655999968001,1
15310,142,Larynx,Sham,Tone,Noise,23,3,0,0.6916782000007521,1
15311,142,Larynx,Sham,Tone,Noise,24,5,1,0.609853000001749,1
15312,142,Larynx,Sham,Tone,Noise,25,2,0,0.725115299999743,1
15313,142,Larynx,Sham,Tone,Noise,26,3,0,0.6641728999966291,1
15314,142,Larynx,Sham,Tone,Noise,27,4,0,0.7225093999986709,1
15315,142,Larynx,Sham,Tone,Noise,28,2,1,0.693096700000751,1
15316,142,Larynx,Sham,Tone,Noise,29,4,0,0.7209609000019549,1
15317,142,Larynx,Sham,Tone,Noise,30,4,1,0.631969800000661,1
15318,142,Larynx,Sham,Tone,Noise,31,3,1,1.014349699999,1
15319,142,Larynx,Sham,Tone,Noise,32,4,0,0.5640628000001021,1
15320,142,Larynx,Sham,Tone,Noise,33,5,1,0.5881594999991651,1
15321,142,Larynx,Sham,Tone,Noise,34,1,0,0.6420109999999111,1
15322,142,Larynx,Sham,Tone,Noise,35,4,1,0.652017899999919,1
15323,142,Larynx,Sham,Tone,Noise,36,2,0,0.736863500002073,1
15324,142,Larynx,Sham,Tone,Noise,37,2,0,0.8121773000020771,1
15325,142,Larynx,Sham,Tone,Noise,38,3,0,0.660808499997074,1
15326,142,Larynx,Sham,Tone,Noise,39,1,1,0.550306799999817,1
15327,142,Larynx,Sham,Tone,Noise,40,3,0,1.10470400000122,1
15328,142,Larynx,Sham,Tone,Noise,41,3,0,0.636515199999849,1
15329,142,Larynx,Sham,Tone,Noise,42,5,1,0.49473659999784997,1
15330,142,Larynx,Sham,Tone,Noise,43,1,0,0.778463399998145,1
15331,142,Larynx,Sham,Tone,Noise,44,2,0,0.688589599998522,1
15332,142,Larynx,Sham,Tone,Noise,45,3,0,0.747033600000577,1
15333,142,Larynx,Sham,Tone,Noise,46,2,0,0.7884078999995842,1
15334,142,Larynx,Sham,Tone,Noise,47,2,1,0.6707413000003729,1
15335,142,Larynx,Sham,Tone,Noise,48,5,1,0.552561399999831,1
15336,142,Larynx,Sham,Tone,Noise,49,4,1,0.618821200001548,1
15337,142,Larynx,Sham,Tone,Noise,50,5,1,0.6670778999978211,1
15338,142,Larynx,Sham,Tone,Noise,51,1,0,0.48903669999708704,1
15339,142,Larynx,Sham,Tone,Noise,52,1,0,0.528193199999805,1
15340,142,Larynx,Sham,Tone,Noise,53,4,1,0.6649046999991701,1
15341,142,Larynx,Sham,Tone,Noise,54,5,1,0.854055399999197,1
15342,142,Larynx,Sham,Tone,Noise,55,2,0,0.561980499998754,1
15343,142,Larynx,Sham,Tone,Noise,56,4,1,0.51953809999759,1
15344,142,Larynx,Sham,Tone,Noise,57,4,1,0.6872788000000579,1
15345,142,Larynx,Sham,Tone,Noise,58,3,0,0.6032653000002031,1
15346,142,Larynx,Sham,Tone,Noise,59,3,0,0.968957500001125,1
15347,142,Larynx,Sham,Tone,Noise,60,2,1,0.542008599997644,1
15348,142,Larynx,Sham,Tone,Noise,61,1,0,0.675412000000506,1
15349,142,Larynx,Sham,Tone,Noise,62,4,1,0.7341851999990471,1
15350,142,Larynx,Sham,Tone,Noise,63,3,0,0.557666999997309,1
15351,142,Larynx,Sham,Tone,Noise,64,3,0,0.624731100000645,1
15352,142,Larynx,Sham,Tone,Noise,65,3,0,0.588202300001285,1
15353,142,Larynx,Sham,Tone,Noise,66,1,0,0.758747900003073,1
15354,142,Larynx,Sham,Tone,Noise,67,5,1,0.544602500001929,1
15355,142,Larynx,Sham,Tone,Noise,68,2,0,0.6976168000001051,1
15356,142,Larynx,Sham,Tone,Noise,69,4,1,0.6437273000010459,1
15357,142,Larynx,Sham,Tone,Noise,70,2,0,0.718219499998668,1
15358,142,Larynx,Sham,Tone,Noise,71,3,1,0.612431199999264,1
15359,142,Larynx,Sham,Tone,Noise,72,3,0,0.6812304000013679,1
15360,142,Larynx,Sham,Tone,Noise,73,2,0,0.697587499998917,1
15361,142,Larynx,Sham,Tone,Noise,74,4,1,0.7216255000021189,1
15362,142,Larynx,Sham,Tone,Noise,75,3,0,0.79210989999774,1
15363,142,Larynx,Sham,Tone,Noise,76,5,1,0.904421899998852,1
15364,142,Larynx,Sham,Tone,Noise,77,1,0,0.568565800000215,1
15365,142,Larynx,Sham,Tone,Noise,78,4,1,0.498615500000597,1
15366,142,Larynx,Sham,Tone,Noise,79,5,1,0.832690200000798,1
15367,142,Larynx,Sham,Tone,Noise,80,3,0,0.7050319000009041,1
15368,142,Larynx,Sham,Tone,Noise,81,3,0,0.624990599997545,1
15369,142,Larynx,Sham,Tone,Noise,82,4,1,0.5291649999999211,1
15370,142,Larynx,Sham,Tone,Noise,83,3,1,0.490818599999329,1
15371,142,Larynx,Sham,Tone,Noise,84,4,1,0.8545479999993401,1
15372,142,Larynx,Sham,Tone,Noise,85,1,0,0.6604251999997359,1
15373,142,Larynx,Sham,Tone,Noise,86,3,0,0.6662954000021271,1
15374,142,Larynx,Sham,Tone,Noise,87,2,1,0.609974499999225,1
15375,142,Larynx,Sham,Tone,Noise,88,1,0,0.661649199999374,1
15376,142,Larynx,Sham,Tone,Noise,89,4,0,0.643202700000984,1
15377,142,Larynx,Sham,Tone,Noise,90,3,0,0.6925103999965361,1
15378,142,Larynx,Sham,Tone,Noise,91,3,1,0.654295800002728,1
15379,142,Larynx,Sham,Tone,Noise,92,1,0,0.956473600002937,1
15380,142,Larynx,Sham,Tone,Noise,93,5,1,0.628650800001196,1
15381,142,Larynx,Sham,Tone,Noise,94,2,0,0.622915199997806,1
15382,142,Larynx,Sham,Tone,Noise,95,1,0,0.678208400000585,1
15383,142,Larynx,Sham,Tone,Noise,96,4,1,0.560766400001739,1
15384,142,Larynx,Sham,Tone,Noise,97,4,1,0.5158521000012121,1
15385,142,Larynx,Sham,Tone,Noise,98,2,0,0.678938100001687,1
15386,142,Larynx,Sham,Tone,Noise,99,2,0,0.825157000002946,1
15387,142,Larynx,Sham,Tone,Noise,100,4,1,0.52215200000137,1
15388,142,Larynx,Sham,Tone,Noise,101,3,0,0.7086400999978649,1
15389,142,Larynx,Sham,Tone,Noise,102,2,0,0.574083399998926,1
15390,142,Larynx,Sham,Tone,Noise,103,3,0,0.612449800002651,1
15391,142,Larynx,Sham,Tone,Noise,104,3,0,0.621856800000387,1
15392,142,Larynx,Sham,Tone,Noise,105,5,1,0.558454800000618,1
15393,142,Larynx,Sham,Tone,Noise,106,2,0,0.693050199999561,1
15394,142,Larynx,Sham,Tone,Noise,107,2,0,0.677209000001312,1
15395,142,Larynx,Sham,Tone,Noise,108,4,1,0.508600599998317,1
15396,142,Larynx,Sham,Tone,Noise,109,5,1,0.68837540000095,1
15397,142,Larynx,Sham,Tone,Noise,110,1,0,0.628478700000414,1
15398,142,Larynx,Sham,Tone,Noise,111,5,1,0.6628373999992621,1
15399,142,Larynx,Sham,Tone,Noise,112,1,0,0.549949399999605,1
15400,142,Larynx,Sham,Tone,Noise,113,4,1,0.753565800001525,1
15401,142,Larynx,Sham,Tone,Noise,114,3,0,0.651772600002005,1
15402,142,Larynx,Sham,Tone,Noise,115,2,0,0.763781199999357,1
15403,142,Larynx,Sham,Tone,Noise,116,3,1,0.563612400001148,1
15404,142,Larynx,Sham,Tone,Noise,117,5,1,0.616719699999521,1
15405,142,Larynx,Sham,Tone,Noise,118,4,1,0.740747400002874,1
15406,142,Larynx,Sham,Tone,Noise,119,5,1,0.6961191999980659,1
15407,142,Larynx,Sham,Tone,Noise,120,2,0,0.536082700000406,1
15408,142,Larynx,Sham,Tone,Noise,121,3,0,0.613847500000702,1
15409,142,Larynx,Sham,Tone,Noise,122,4,1,0.5841885000008921,1
15410,142,Larynx,Sham,Tone,Noise,123,4,1,0.62944719999723,1
15411,142,Larynx,Sham,Tone,Noise,124,2,0,0.526701999999204,1
15412,142,Larynx,Sham,Tone,Noise,125,2,0,0.625565800000913,1
15413,142,Larynx,Sham,Tone,Noise,126,3,1,0.5548191999987471,1
15414,142,Larynx,Sham,Tone,Noise,127,5,1,0.88201609999669,1
15415,142,Larynx,Sham,Tone,Noise,128,1,0,0.784342000002653,1
15416,142,Larynx,Sham,Tone,Noise,129,4,0,0.578783299999486,1
15417,142,Larynx,Sham,Tone,Noise,130,3,0,0.7440002000003009,1
15418,142,Larynx,Sham,Tone,Noise,131,1,0,0.871390299998893,1
15419,142,Larynx,Sham,Tone,Noise,132,3,1,0.7309883000016271,1
15420,142,Larynx,Sham,Tone,Noise,133,3,1,0.639191900001606,1
15421,142,Larynx,Sham,Tone,Noise,134,1,1,1.04795390000072,1
15422,142,Larynx,Sham,Tone,Noise,135,2,1,1.15864330000113,1
15423,142,Larynx,Sham,Tone,Noise,136,5,1,0.9379632000018321,1
15424,142,Larynx,Sham,Tone,Noise,137,5,0,0.706471699999383,1
15425,142,Larynx,Sham,Tone,Noise,138,4,1,0.724138500001573,1
15426,142,Larynx,Sham,Tone,Noise,139,3,0,0.647480200001155,1
15427,142,Larynx,Sham,Tone,Noise,140,3,0,0.9633432000009631,1
15428,142,Larynx,Sham,Tone,Noise,141,5,0,0.815747299999202,1
15429,142,Larynx,Sham,Tone,Noise,142,4,1,0.734840000000986,1
15430,142,Larynx,Sham,Tone,Noise,143,3,0,1.03454099999726,1
15431,142,Larynx,Sham,Tone,Noise,144,2,0,0.9550641000023459,1
15432,142,Larynx,Sham,Tone,Noise,145,4,1,0.815613599999779,1
15433,142,Larynx,Sham,Tone,Noise,146,1,0,0.659484600000724,1
15434,142,Larynx,Sham,Tone,Noise,147,1,0,0.7123107000006709,1
15435,142,Larynx,Sham,Tone,Noise,148,3,0,0.6539852999994761,1
15436,142,Larynx,Sham,Tone,Noise,149,2,1,0.6008290999998279,1
15437,142,Larynx,Sham,Tone,Noise,150,1,0,0.626550200002384,1
15438,142,Larynx,Sham,Tone,Noise,151,5,1,0.554309700000886,1
15439,142,Larynx,Sham,Tone,Noise,152,2,0,0.610873400000855,1
15440,142,Larynx,Sham,Tone,Noise,153,4,1,0.50749359999827,1
15441,142,Larynx,Sham,Tone,Noise,154,3,0,0.7692647000003492,1
15442,142,Larynx,Sham,Tone,Noise,155,3,1,0.8415232999977891,1
15443,142,Larynx,Sham,Tone,Noise,156,2,0,0.6848255000004431,1
17784,201,Larynx,Right cTBS,Tone,Noise,1,4,1,1.17949220002629,1
17785,201,Larynx,Right cTBS,Tone,Noise,2,1,0,0.681820499943569,1
17786,201,Larynx,Right cTBS,Tone,Noise,3,2,1,0.701328100054525,1
17787,201,Larynx,Right cTBS,Tone,Noise,4,4,1,0.636784299975261,1
17788,201,Larynx,Right cTBS,Tone,Noise,5,4,1,0.6166552000213411,1
17789,201,Larynx,Right cTBS,Tone,Noise,6,4,1,0.5593229000223799,1
17790,201,Larynx,Right cTBS,Tone,Noise,7,1,0,0.7729422999545931,1
17791,201,Larynx,Right cTBS,Tone,Noise,8,3,1,0.7573993999976659,1
17792,201,Larynx,Right cTBS,Tone,Noise,9,3,1,0.6925175000214949,1
17793,201,Larynx,Right cTBS,Tone,Noise,10,5,1,0.597363300039433,1
17794,201,Larynx,Right cTBS,Tone,Noise,11,2,0,0.642505900003016,1
17795,201,Larynx,Right cTBS,Tone,Noise,12,3,1,0.725721099996008,1
17796,201,Larynx,Right cTBS,Tone,Noise,13,2,1,0.626667299889959,1
17797,201,Larynx,Right cTBS,Tone,Noise,14,1,1,0.7186576999956741,1
17798,201,Larynx,Right cTBS,Tone,Noise,15,1,0,0.569782300037332,1
17799,201,Larynx,Right cTBS,Tone,Noise,16,3,1,0.573419700027443,1
17800,201,Larynx,Right cTBS,Tone,Noise,17,5,1,0.4625463000265879,1
17801,201,Larynx,Right cTBS,Tone,Noise,18,4,1,0.470087300054729,1
17802,201,Larynx,Right cTBS,Tone,Noise,19,2,0,0.5935417000437161,1
17803,201,Larynx,Right cTBS,Tone,Noise,20,2,1,0.5737126999301839,1
17804,201,Larynx,Right cTBS,Tone,Noise,21,4,1,0.38170750008430293,1
17805,201,Larynx,Right cTBS,Tone,Noise,22,5,1,0.49466460000257895,1
17806,201,Larynx,Right cTBS,Tone,Noise,23,3,1,0.532272499985993,1
17807,201,Larynx,Right cTBS,Tone,Noise,24,1,0,0.701135899988003,1
17808,201,Larynx,Right cTBS,Tone,Noise,25,4,1,0.531402499997057,1
17809,201,Larynx,Right cTBS,Tone,Noise,26,3,1,0.647854600101709,1
17810,201,Larynx,Right cTBS,Tone,Noise,27,1,1,0.660604599979706,1
17811,201,Larynx,Right cTBS,Tone,Noise,28,3,1,0.599362000008114,1
17812,201,Larynx,Right cTBS,Tone,Noise,29,4,1,0.529584100004286,1
17813,201,Larynx,Right cTBS,Tone,Noise,30,2,0,0.5597352000186221,1
