,subj_idx,group_idx,turn_type,task_type,snr_type,trial_num,step_att,response,rt,step_unatnd
468,55,Larynx,Left iTBS,Cons,Noise,1,5,1,1.7950042000156798,1
469,55,Larynx,Left iTBS,Cons,Noise,2,3,0,0.731415999995079,1
470,55,Larynx,Left iTBS,Cons,Noise,3,5,1,0.6405333000002429,1
471,55,Larynx,Left iTBS,Cons,Noise,4,2,0,0.594904700003099,1
472,55,Larynx,Left iTBS,Cons,Noise,5,2,0,0.725101499992888,1
473,55,Larynx,Left iTBS,Cons,Noise,6,3,1,0.533948900003452,1
474,55,Larynx,Left iTBS,Cons,Noise,7,2,0,0.628672700026073,1
475,55,Larynx,Left iTBS,Cons,Noise,8,3,1,0.43826399999670707,1
476,55,Larynx,Left iTBS,Cons,Noise,9,4,1,0.665987699991092,1
477,55,Larynx,Left iTBS,Cons,Noise,10,3,0,0.565982300031465,1
478,55,Larynx,Left iTBS,Cons,Noise,11,4,1,0.796048000047449,1
479,55,Larynx,Left iTBS,Cons,Noise,12,4,0,0.8122750000329692,1
480,55,Larynx,Left iTBS,Cons,Noise,13,2,1,0.5897905000019821,1
481,55,Larynx,Left iTBS,Cons,Noise,14,2,1,0.742101899988484,1
482,55,Larynx,Left iTBS,Cons,Noise,15,5,1,0.698321800038684,1
483,55,Larynx,Left iTBS,Cons,Noise,16,3,0,0.533613500010688,1
484,55,Larynx,Left iTBS,Cons,Noise,17,1,1,0.565702099993359,1
485,55,Larynx,Left iTBS,Cons,Noise,18,1,1,0.599132900009863,1
486,55,Larynx,Left iTBS,Cons,Noise,19,3,1,0.679878599999938,1
487,55,Larynx,Left iTBS,Cons,Noise,20,2,0,0.6084742000093679,1
488,55,Larynx,Left iTBS,Cons,Noise,21,3,1,0.551223399990704,1
489,55,Larynx,Left iTBS,Cons,Noise,22,2,0,0.70401079999283,1
490,55,Larynx,Left iTBS,Cons,Noise,23,2,1,0.548010000027716,1
491,55,Larynx,Left iTBS,Cons,Noise,24,4,0,0.653658099996392,1
492,55,Larynx,Left iTBS,Cons,Noise,25,1,1,0.572301200008951,1
493,55,Larynx,Left iTBS,Cons,Noise,26,1,0,0.7247848000261,1
494,55,Larynx,Left iTBS,Cons,Noise,27,5,1,0.531033800041769,1
495,55,Larynx,Left iTBS,Cons,Noise,28,5,1,1.02787660004105,1
496,55,Larynx,Left iTBS,Cons,Noise,29,4,1,0.6181991999619639,1
497,55,Larynx,Left iTBS,Cons,Noise,30,3,0,0.632276899996214,1
498,55,Larynx,Left iTBS,Cons,Noise,31,3,1,0.9034394999616779,1
499,55,Larynx,Left iTBS,Cons,Noise,32,1,0,0.883901700028218,1
500,55,Larynx,Left iTBS,Cons,Noise,33,1,0,1.17173390003154,1
501,55,Larynx,Left iTBS,Cons,Noise,34,5,1,0.6233105999999681,1
502,55,Larynx,Left iTBS,Cons,Noise,35,4,1,0.547569799993653,1
503,55,Larynx,Left iTBS,Cons,Noise,36,4,1,0.673598699970171,1
504,55,Larynx,Left iTBS,Cons,Noise,37,3,0,0.824814500054345,1
505,55,Larynx,Left iTBS,Cons,Noise,38,4,0,1.4421560000046203,1
506,55,Larynx,Left iTBS,Cons,Noise,39,3,1,0.756579799985047,1
507,55,Larynx,Left iTBS,Cons,Noise,40,4,0,0.857606400037184,1
508,55,Larynx,Left iTBS,Cons,Noise,41,4,1,0.7576872999779879,1
509,55,Larynx,Left iTBS,Cons,Noise,42,3,1,1.62022989999969,1
510,55,Larynx,Left iTBS,Cons,Noise,43,1,0,0.569161000021268,1
511,55,Larynx,Left iTBS,Cons,Noise,44,3,1,0.6599713999894449,1
512,55,Larynx,Left iTBS,Cons,Noise,45,2,0,0.5581579999998211,1
513,55,Larynx,Left iTBS,Cons,Noise,46,3,0,0.9750585000147108,1
514,55,Larynx,Left iTBS,Cons,Noise,47,1,1,0.652406899956986,1
515,55,Larynx,Left iTBS,Cons,Noise,48,2,0,0.632531400013249,1
516,55,Larynx,Left iTBS,Cons,Noise,49,4,1,0.645579800009727,1
517,55,Larynx,Left iTBS,Cons,Noise,50,4,0,0.916830300004222,1
518,55,Larynx,Left iTBS,Cons,Noise,51,1,1,0.94023779995041,1
519,55,Larynx,Left iTBS,Cons,Noise,52,5,1,1.8094263999955702,1
520,55,Larynx,Left iTBS,Cons,Noise,53,3,0,0.829773499979638,1
521,55,Larynx,Left iTBS,Cons,Noise,54,5,1,0.692904099996667,1
522,55,Larynx,Left iTBS,Cons,Noise,55,2,0,0.582205899991095,1
523,55,Larynx,Left iTBS,Cons,Noise,56,5,1,0.758523500000592,1
524,55,Larynx,Left iTBS,Cons,Noise,57,3,1,0.6005181000218729,1
525,55,Larynx,Left iTBS,Cons,Noise,58,2,1,3.08589710004162,1
526,55,Larynx,Left iTBS,Cons,Noise,59,4,0,0.9299965999671259,1
527,55,Larynx,Left iTBS,Cons,Noise,60,4,1,0.5035707000060939,1
528,55,Larynx,Left iTBS,Cons,Noise,61,1,0,0.624178199970629,1
529,55,Larynx,Left iTBS,Cons,Noise,62,5,1,0.514703500026371,1
530,55,Larynx,Left iTBS,Cons,Noise,63,2,0,0.5562604999868199,1
531,55,Larynx,Left iTBS,Cons,Noise,64,1,1,0.513904099992942,1
532,55,Larynx,Left iTBS,Cons,Noise,65,3,0,0.805465000041295,1
533,55,Larynx,Left iTBS,Cons,Noise,66,3,1,0.657383700017817,1
534,55,Larynx,Left iTBS,Cons,Noise,67,4,0,0.5626281999866479,1
535,55,Larynx,Left iTBS,Cons,Noise,68,2,1,0.682440300006419,1
536,55,Larynx,Left iTBS,Cons,Noise,69,5,1,0.934513800020795,1
537,55,Larynx,Left iTBS,Cons,Noise,70,2,0,0.5951385000371371,1
538,55,Larynx,Left iTBS,Cons,Noise,71,3,1,1.92800850002095,1
539,55,Larynx,Left iTBS,Cons,Noise,72,2,0,0.601372799952514,1
540,55,Larynx,Left iTBS,Cons,Noise,73,1,0,0.715362299990375,1
541,55,Larynx,Left iTBS,Cons,Noise,74,3,0,0.835421500029042,1
542,55,Larynx,Left iTBS,Cons,Noise,75,4,1,0.531104299996514,1
543,55,Larynx,Left iTBS,Cons,Noise,76,3,1,1.0765328000416001,1
544,55,Larynx,Left iTBS,Cons,Noise,77,3,0,0.783202400023583,1
545,55,Larynx,Left iTBS,Cons,Noise,78,5,1,0.627538600005209,1
546,55,Larynx,Left iTBS,Cons,Noise,79,3,0,0.635813999979291,1
547,55,Larynx,Left iTBS,Cons,Noise,80,4,0,0.967474500008393,1
548,55,Larynx,Left iTBS,Cons,Noise,81,5,1,1.01949159998912,1
549,55,Larynx,Left iTBS,Cons,Noise,82,2,0,0.6307663000188771,1
550,55,Larynx,Left iTBS,Cons,Noise,83,2,0,0.868391899974085,1
551,55,Larynx,Left iTBS,Cons,Noise,84,4,1,1.41440840001451,1
552,55,Larynx,Left iTBS,Cons,Noise,85,2,0,1.5012543000048,1
553,55,Larynx,Left iTBS,Cons,Noise,86,5,1,0.6492750000325029,1
554,55,Larynx,Left iTBS,Cons,Noise,87,4,1,0.784012499963865,1
555,55,Larynx,Left iTBS,Cons,Noise,88,3,0,0.7556159000378101,1
556,55,Larynx,Left iTBS,Cons,Noise,89,1,0,0.787731499993242,1
557,55,Larynx,Left iTBS,Cons,Noise,90,2,1,0.9229917000047859,1
558,55,Larynx,Left iTBS,Cons,Noise,91,1,0,0.603378399973735,1
559,55,Larynx,Left iTBS,Cons,Noise,92,5,1,1.1196745999623101,1
560,55,Larynx,Left iTBS,Cons,Noise,93,3,0,0.630193100019824,1
561,55,Larynx,Left iTBS,Cons,Noise,94,3,1,0.703132800001185,1
562,55,Larynx,Left iTBS,Cons,Noise,95,2,1,1.2863420000067,1
563,55,Larynx,Left iTBS,Cons,Noise,96,1,0,1.0810664000455301,1
564,55,Larynx,Left iTBS,Cons,Noise,97,4,1,1.00352209998528,1
565,55,Larynx,Left iTBS,Cons,Noise,98,4,1,1.58477669995045,1
566,55,Larynx,Left iTBS,Cons,Noise,99,3,0,0.61588140000822,1
567,55,Larynx,Left iTBS,Cons,Noise,100,3,1,1.26144199998816,1
568,55,Larynx,Left iTBS,Cons,Noise,101,4,1,1.0520922000287098,1
569,55,Larynx,Left iTBS,Cons,Noise,102,5,1,1.29994799999986,1
570,55,Larynx,Left iTBS,Cons,Noise,103,1,0,1.05635900003836,1
571,55,Larynx,Left iTBS,Cons,Noise,104,1,1,1.7716475999914099,1
572,55,Larynx,Left iTBS,Cons,Noise,105,5,1,1.327187900024,1
573,55,Larynx,Left iTBS,Cons,Noise,106,2,0,0.662934400024824,1
574,55,Larynx,Left iTBS,Cons,Noise,107,3,0,1.1836544999969199,1
575,55,Larynx,Left iTBS,Cons,Noise,108,2,0,0.6359618999995289,1
576,55,Larynx,Left iTBS,Cons,Noise,109,3,1,0.625057999975979,1
577,55,Larynx,Left iTBS,Cons,Noise,110,4,0,0.6263827999937349,1
578,55,Larynx,Left iTBS,Cons,Noise,111,2,1,0.5552683999994771,1
579,55,Larynx,Left iTBS,Cons,Noise,112,4,1,0.7443512000027109,1
580,55,Larynx,Left iTBS,Cons,Noise,113,1,0,0.5618649999960329,1
581,55,Larynx,Left iTBS,Cons,Noise,114,3,1,0.488748000003397,1
582,55,Larynx,Left iTBS,Cons,Noise,115,3,0,0.600243700027931,1
583,55,Larynx,Left iTBS,Cons,Noise,116,3,1,0.464134500012733,1
584,55,Larynx,Left iTBS,Cons,Noise,117,5,1,0.6032870999770239,1
585,55,Larynx,Left iTBS,Cons,Noise,118,4,0,0.7619759000372142,1
586,55,Larynx,Left iTBS,Cons,Noise,119,4,1,0.752765499986708,1
587,55,Larynx,Left iTBS,Cons,Noise,120,3,1,0.83900179999182,1
588,55,Larynx,Left iTBS,Cons,Noise,121,2,0,0.645708199997898,1
589,55,Larynx,Left iTBS,Cons,Noise,122,2,1,1.3629796000313898,1
590,55,Larynx,Left iTBS,Cons,Noise,123,4,1,0.922486900002696,1
591,55,Larynx,Left iTBS,Cons,Noise,124,1,0,0.718071800016332,1
592,55,Larynx,Left iTBS,Cons,Noise,125,1,1,0.6610197999980301,1
593,55,Larynx,Left iTBS,Cons,Noise,126,4,1,0.8638280999730341,1
594,55,Larynx,Left iTBS,Cons,Noise,127,4,0,0.766776899981778,1
595,55,Larynx,Left iTBS,Cons,Noise,128,4,1,1.2530144000193102,1
596,55,Larynx,Left iTBS,Cons,Noise,129,5,1,0.862454699992668,1
597,55,Larynx,Left iTBS,Cons,Noise,130,5,1,1.46678700001212,1
598,55,Larynx,Left iTBS,Cons,Noise,131,3,0,0.615852099959739,1
599,55,Larynx,Left iTBS,Cons,Noise,132,4,1,0.932919499988202,1
600,55,Larynx,Left iTBS,Cons,Noise,133,3,0,0.5557553999824449,1
601,55,Larynx,Left iTBS,Cons,Noise,134,1,1,0.5124209999921729,1
602,55,Larynx,Left iTBS,Cons,Noise,135,5,0,0.47530170000391103,1
603,55,Larynx,Left iTBS,Cons,Noise,136,1,0,0.618382600019686,1
604,55,Larynx,Left iTBS,Cons,Noise,137,3,1,0.562709099962376,1
605,55,Larynx,Left iTBS,Cons,Noise,138,2,0,0.48749889997998297,1
606,55,Larynx,Left iTBS,Cons,Noise,139,2,1,0.8078832000028341,1
607,55,Larynx,Left iTBS,Cons,Noise,140,5,1,0.724006900039967,1
608,55,Larynx,Left iTBS,Cons,Noise,141,2,0,0.560021099983715,1
609,55,Larynx,Left iTBS,Cons,Noise,142,2,1,0.547765199968126,1
610,55,Larynx,Left iTBS,Cons,Noise,143,2,0,0.536923100007698,1
611,55,Larynx,Left iTBS,Cons,Noise,144,3,1,1.00386339996476,1
612,55,Larynx,Left iTBS,Cons,Noise,145,1,1,0.632230899995193,1
613,55,Larynx,Left iTBS,Cons,Noise,146,5,1,1.67740500002401,1
614,55,Larynx,Left iTBS,Cons,Noise,147,5,0,1.8619477000320301,1
615,55,Larynx,Left iTBS,Cons,Noise,148,3,1,0.700116700027138,1
616,55,Larynx,Left iTBS,Cons,Noise,149,3,0,1.1484371999977199,1
617,55,Larynx,Left iTBS,Cons,Noise,150,3,1,0.713594300032128,1
618,55,Larynx,Left iTBS,Cons,Noise,151,3,0,0.986242900020443,1
619,55,Larynx,Left iTBS,Cons,Noise,152,3,1,0.8565034000203009,1
620,55,Larynx,Left iTBS,Cons,Noise,153,2,0,0.6762824999750591,1
621,55,Larynx,Left iTBS,Cons,Noise,154,4,1,1.26027209998574,1
622,55,Larynx,Left iTBS,Cons,Noise,155,3,1,0.7222843999625179,1
623,55,Larynx,Left iTBS,Cons,Noise,156,1,0,0.614814999978989,1
2964,55,Larynx,Sham,Cons,Noise,1,3,0,1.5307869000826002,1
2965,55,Larynx,Sham,Cons,Noise,2,4,1,0.6821456999750811,1
2966,55,Larynx,Sham,Cons,Noise,3,4,1,0.658868899918161,1
2967,55,Larynx,Sham,Cons,Noise,4,5,1,0.6469414000166579,1
2968,55,Larynx,Sham,Cons,Noise,5,4,1,0.62145530001726,1
2969,55,Larynx,Sham,Cons,Noise,6,4,0,0.5319529999978839,1
2970,55,Larynx,Sham,Cons,Noise,7,5,0,0.71343949995935,1
2971,55,Larynx,Sham,Cons,Noise,8,5,1,0.49909990001469895,1
2972,55,Larynx,Sham,Cons,Noise,9,1,0,0.503549999906681,1
2973,55,Larynx,Sham,Cons,Noise,10,3,1,0.48702460003551096,1
2974,55,Larynx,Sham,Cons,Noise,11,5,1,0.8237498999806121,1
2975,55,Larynx,Sham,Cons,Noise,12,2,0,0.482698799925856,1
2976,55,Larynx,Sham,Cons,Noise,13,3,1,0.537001100019552,1
2977,55,Larynx,Sham,Cons,Noise,14,1,0,0.48370779992546903,1
2978,55,Larynx,Sham,Cons,Noise,15,1,1,0.49290080007631304,1
2979,55,Larynx,Sham,Cons,Noise,16,2,0,0.582844799966551,1
2980,55,Larynx,Sham,Cons,Noise,17,3,1,0.52484640001785,1
2981,55,Larynx,Sham,Cons,Noise,18,1,0,0.753753899945877,1
2982,55,Larynx,Sham,Cons,Noise,19,3,1,0.7051534999627621,1
2983,55,Larynx,Sham,Cons,Noise,20,3,1,0.6509593999944631,1
2984,55,Larynx,Sham,Cons,Noise,21,3,0,0.622055899933912,1
2985,55,Larynx,Sham,Cons,Noise,22,4,1,0.464599599945359,1
2986,55,Larynx,Sham,Cons,Noise,23,4,1,0.678987700026482,1
2987,55,Larynx,Sham,Cons,Noise,24,5,1,0.565542099997401,1
2988,55,Larynx,Sham,Cons,Noise,25,3,1,0.566953699919395,1
2989,55,Larynx,Sham,Cons,Noise,26,3,1,0.7364814000902701,1
2990,55,Larynx,Sham,Cons,Noise,27,3,1,0.48162820003926793,1
2991,55,Larynx,Sham,Cons,Noise,28,1,0,0.517724800040014,1
2992,55,Larynx,Sham,Cons,Noise,29,4,1,0.47455649997573296,1
2993,55,Larynx,Sham,Cons,Noise,30,2,1,0.662513299961574,1
2994,55,Larynx,Sham,Cons,Noise,31,2,1,0.846782799926586,1
2995,55,Larynx,Sham,Cons,Noise,32,3,1,0.519919599988498,1
2996,55,Larynx,Sham,Cons,Noise,33,4,1,0.8943163000512869,1
2997,55,Larynx,Sham,Cons,Noise,34,5,1,0.592016999959014,1
2998,55,Larynx,Sham,Cons,Noise,35,2,1,0.6112741000251839,1
2999,55,Larynx,Sham,Cons,Noise,36,2,1,0.6967818000121041,1
3000,55,Larynx,Sham,Cons,Noise,37,2,0,0.5979539999971171,1
3001,55,Larynx,Sham,Cons,Noise,38,1,0,0.612666400033049,1
3002,55,Larynx,Sham,Cons,Noise,39,2,1,0.53074319998268,1
3003,55,Larynx,Sham,Cons,Noise,40,4,1,0.516306400066242,1
3004,55,Larynx,Sham,Cons,Noise,41,3,0,1.15840950002894,1
3005,55,Larynx,Sham,Cons,Noise,42,4,1,0.787510799942538,1
3006,55,Larynx,Sham,Cons,Noise,43,1,0,0.6617557000136,1
3007,55,Larynx,Sham,Cons,Noise,44,1,0,0.71685399999842,1
3008,55,Larynx,Sham,Cons,Noise,45,2,1,0.7057427000254392,1
3009,55,Larynx,Sham,Cons,Noise,46,4,1,0.547556199948303,1
3010,55,Larynx,Sham,Cons,Noise,47,4,1,0.578619100037031,1
3011,55,Larynx,Sham,Cons,Noise,48,5,1,0.667144199949689,1
3012,55,Larynx,Sham,Cons,Noise,49,4,1,0.820698500028811,1
3013,55,Larynx,Sham,Cons,Noise,50,2,0,0.725479799904861,1
3014,55,Larynx,Sham,Cons,Noise,51,1,0,0.690131500014104,1
3015,55,Larynx,Sham,Cons,Noise,52,3,1,0.682829300058074,1
3016,55,Larynx,Sham,Cons,Noise,53,5,1,0.666599899996072,1
3017,55,Larynx,Sham,Cons,Noise,54,2,1,0.9784353999421,1
3018,55,Larynx,Sham,Cons,Noise,55,2,0,0.8164500000420959,1
3019,55,Larynx,Sham,Cons,Noise,56,3,1,0.719150200020522,1
3020,55,Larynx,Sham,Cons,Noise,57,5,1,0.739570299978368,1
3021,55,Larynx,Sham,Cons,Noise,58,3,0,0.678393499925733,1
3022,55,Larynx,Sham,Cons,Noise,59,3,1,0.630099799949676,1
3023,55,Larynx,Sham,Cons,Noise,60,2,1,0.771972800022922,1
3024,55,Larynx,Sham,Cons,Noise,61,3,1,0.7075641000410541,1
3025,55,Larynx,Sham,Cons,Noise,62,4,1,0.8816059000091631,1
3026,55,Larynx,Sham,Cons,Noise,63,3,0,0.6928621999686579,1
3027,55,Larynx,Sham,Cons,Noise,64,5,1,1.4291567999171102,1
3028,55,Larynx,Sham,Cons,Noise,65,3,1,0.932141899946146,1
3029,55,Larynx,Sham,Cons,Noise,66,3,0,1.12818849994801,1
3030,55,Larynx,Sham,Cons,Noise,67,4,1,1.0199495999841,1
3031,55,Larynx,Sham,Cons,Noise,68,1,0,0.8284651999128979,1
3032,55,Larynx,Sham,Cons,Noise,69,3,0,0.8511536000296469,1
3033,55,Larynx,Sham,Cons,Noise,70,5,1,0.730682100052945,1
3034,55,Larynx,Sham,Cons,Noise,71,3,1,1.19798270007595,1
3035,55,Larynx,Sham,Cons,Noise,72,4,0,2.34898810007144,1
3036,55,Larynx,Sham,Cons,Noise,73,5,1,0.680964199942537,1
3037,55,Larynx,Sham,Cons,Noise,74,2,0,0.717610500054434,1
3038,55,Larynx,Sham,Cons,Noise,75,1,0,0.5912231999682261,1
3039,55,Larynx,Sham,Cons,Noise,76,2,0,0.599850500002503,1
3040,55,Larynx,Sham,Cons,Noise,77,1,0,0.662809599889442,1
3041,55,Larynx,Sham,Cons,Noise,78,2,1,0.8253241999773309,1
3042,55,Larynx,Sham,Cons,Noise,79,5,1,0.703555700019933,1
3043,55,Larynx,Sham,Cons,Noise,80,2,0,0.5959268999285999,1
3044,55,Larynx,Sham,Cons,Noise,81,2,0,0.8908233999973159,1
3045,55,Larynx,Sham,Cons,Noise,82,2,1,1.5969076999463099,1
3046,55,Larynx,Sham,Cons,Noise,83,4,1,0.775763800018467,1
3047,55,Larynx,Sham,Cons,Noise,84,2,0,0.7285356000065799,1
3048,55,Larynx,Sham,Cons,Noise,85,2,0,2.48500959994271,1
3049,55,Larynx,Sham,Cons,Noise,86,1,0,0.766181799932383,1
3050,55,Larynx,Sham,Cons,Noise,87,5,1,0.8949987998930741,1
3051,55,Larynx,Sham,Cons,Noise,88,5,1,0.7133462999481709,1
3052,55,Larynx,Sham,Cons,Noise,89,3,0,1.07265850005206,1
3053,55,Larynx,Sham,Cons,Noise,90,3,1,0.9192121999803929,1
3054,55,Larynx,Sham,Cons,Noise,91,3,1,0.680175399989821,1
3055,55,Larynx,Sham,Cons,Noise,92,4,1,0.6647099000401789,1
3056,55,Larynx,Sham,Cons,Noise,93,4,1,0.673506099963561,1
3057,55,Larynx,Sham,Cons,Noise,94,5,1,0.660587299964391,1
3058,55,Larynx,Sham,Cons,Noise,95,4,1,0.591025899979286,1
3059,55,Larynx,Sham,Cons,Noise,96,5,1,0.7355561000294979,1
3060,55,Larynx,Sham,Cons,Noise,97,1,0,0.614329000003636,1
3061,55,Larynx,Sham,Cons,Noise,98,3,1,0.66858699999284,1
3062,55,Larynx,Sham,Cons,Noise,99,1,0,0.6719857000280172,1
3063,55,Larynx,Sham,Cons,Noise,100,3,1,1.01941840001382,1
3064,55,Larynx,Sham,Cons,Noise,101,1,0,2.55356090003625,1
3065,55,Larynx,Sham,Cons,Noise,102,4,1,0.738425999996252,1
3066,55,Larynx,Sham,Cons,Noise,103,3,0,0.7448549000546341,1
3067,55,Larynx,Sham,Cons,Noise,104,4,1,0.57066559989471,1
3068,55,Larynx,Sham,Cons,Noise,105,2,1,1.25289070000872,1
3069,55,Larynx,Sham,Cons,Noise,106,3,1,0.647669299971312,1
3070,55,Larynx,Sham,Cons,Noise,107,3,1,0.616101999999955,1
3071,55,Larynx,Sham,Cons,Noise,108,5,0,0.697021400090307,1
3072,55,Larynx,Sham,Cons,Noise,109,3,1,0.549885700107552,1
3073,55,Larynx,Sham,Cons,Noise,110,2,0,2.17760609998368,1
3074,55,Larynx,Sham,Cons,Noise,111,1,0,0.769778499961831,1
3075,55,Larynx,Sham,Cons,Noise,112,4,1,0.676096100010909,1
3076,55,Larynx,Sham,Cons,Noise,113,3,1,1.02865899994504,1
3077,55,Larynx,Sham,Cons,Noise,114,4,1,0.723657199996524,1
3078,55,Larynx,Sham,Cons,Noise,115,1,0,0.5962907000212,1
3079,55,Larynx,Sham,Cons,Noise,116,2,1,0.6238134000450369,1
3080,55,Larynx,Sham,Cons,Noise,117,3,1,0.9349468000000342,1
3081,55,Larynx,Sham,Cons,Noise,118,1,0,2.44618370011449,1
3082,55,Larynx,Sham,Cons,Noise,119,3,1,0.677113799960352,1
3083,55,Larynx,Sham,Cons,Noise,120,1,0,0.6911825001006949,1
3084,55,Larynx,Sham,Cons,Noise,121,3,1,0.577202999964356,1
3085,55,Larynx,Sham,Cons,Noise,122,2,0,0.666769899893552,1
3086,55,Larynx,Sham,Cons,Noise,123,4,1,1.42497000005096,1
3087,55,Larynx,Sham,Cons,Noise,124,4,1,0.724727199994959,1
3088,55,Larynx,Sham,Cons,Noise,125,3,1,0.645452699973248,1
3089,55,Larynx,Sham,Cons,Noise,126,3,1,1.29093769995961,1
3090,55,Larynx,Sham,Cons,Noise,127,2,1,1.46082190005109,1
3091,55,Larynx,Sham,Cons,Noise,128,4,1,0.637649500044063,1
3092,55,Larynx,Sham,Cons,Noise,129,5,1,0.603837099974044,1
3093,55,Larynx,Sham,Cons,Noise,130,2,0,0.59561289998237,1
3094,55,Larynx,Sham,Cons,Noise,131,1,0,0.6933199999621139,1
3095,55,Larynx,Sham,Cons,Noise,132,2,1,0.718388000037521,1
3096,55,Larynx,Sham,Cons,Noise,133,5,1,1.5220328000141299,1
3097,55,Larynx,Sham,Cons,Noise,134,3,1,0.9235856999875981,1
3098,55,Larynx,Sham,Cons,Noise,135,3,1,4.00040370004717,1
3099,55,Larynx,Sham,Cons,Noise,136,3,1,0.6542557999491689,1
3100,55,Larynx,Sham,Cons,Noise,137,2,1,0.596438399981707,1
3101,55,Larynx,Sham,Cons,Noise,138,3,0,0.6156042999355121,1
3102,55,Larynx,Sham,Cons,Noise,139,4,1,0.440215799957514,1
3103,55,Larynx,Sham,Cons,Noise,140,3,1,0.6647974000079561,1
3104,55,Larynx,Sham,Cons,Noise,141,4,0,0.904145500040613,1
3105,55,Larynx,Sham,Cons,Noise,142,1,1,1.8800201999256398,1
3106,55,Larynx,Sham,Cons,Noise,143,5,1,2.20679900003597,1
3107,55,Larynx,Sham,Cons,Noise,144,2,0,0.6883681999752299,1
3108,55,Larynx,Sham,Cons,Noise,145,3,1,1.21195610007271,1
3109,55,Larynx,Sham,Cons,Noise,146,4,1,0.834877700079232,1
3110,55,Larynx,Sham,Cons,Noise,147,1,0,0.5634677000343801,1
3111,55,Larynx,Sham,Cons,Noise,148,1,0,0.602815399994142,1
3112,55,Larynx,Sham,Cons,Noise,149,2,0,0.689122999901883,1
3113,55,Larynx,Sham,Cons,Noise,150,5,1,0.662343900068663,1
3114,55,Larynx,Sham,Cons,Noise,151,5,1,0.7509035000111909,1
3115,55,Larynx,Sham,Cons,Noise,152,5,1,0.5842617000453171,1
3116,55,Larynx,Sham,Cons,Noise,153,4,0,0.8468583000358191,1
3117,55,Larynx,Sham,Cons,Noise,154,3,0,0.6682752000633629,1
3118,55,Larynx,Sham,Cons,Noise,155,2,1,0.5926437999587509,1
3119,55,Larynx,Sham,Cons,Noise,156,4,1,0.897828799905255,1
3588,104,Larynx,Left iTBS,Cons,Noise,1,3,0,1.3983425999758798,1
3589,104,Larynx,Left iTBS,Cons,Noise,2,2,0,0.7191642000107091,1
3590,104,Larynx,Left iTBS,Cons,Noise,3,3,0,0.8050502999685699,1
3591,104,Larynx,Left iTBS,Cons,Noise,4,5,0,0.748132499982603,1
3592,104,Larynx,Left iTBS,Cons,Noise,5,5,1,0.739220599993132,1
3593,104,Larynx,Left iTBS,Cons,Noise,6,3,1,0.6505701999412851,1
3594,104,Larynx,Left iTBS,Cons,Noise,7,1,0,0.628845300059766,1
3595,104,Larynx,Left iTBS,Cons,Noise,8,3,0,0.6590865999460219,1
3596,104,Larynx,Left iTBS,Cons,Noise,9,3,0,0.598798400023952,1
3597,104,Larynx,Left iTBS,Cons,Noise,10,4,0,0.755803900072351,1
3598,104,Larynx,Left iTBS,Cons,Noise,11,3,1,0.48419950006064,1
3599,104,Larynx,Left iTBS,Cons,Noise,12,1,0,0.6083582999417559,1
3600,104,Larynx,Left iTBS,Cons,Noise,13,5,0,0.563776000053622,1
3601,104,Larynx,Left iTBS,Cons,Noise,14,4,0,0.6471536000026391,1
3602,104,Larynx,Left iTBS,Cons,Noise,15,1,0,0.7174974000081421,1
3603,104,Larynx,Left iTBS,Cons,Noise,16,5,0,0.633431199938059,1
3604,104,Larynx,Left iTBS,Cons,Noise,17,2,1,0.657085099956021,1
3605,104,Larynx,Left iTBS,Cons,Noise,18,4,1,0.738853799994104,1
3606,104,Larynx,Left iTBS,Cons,Noise,19,2,0,0.6980776999844239,1
3607,104,Larynx,Left iTBS,Cons,Noise,20,2,0,0.650355999940075,1
3608,104,Larynx,Left iTBS,Cons,Noise,21,1,0,0.631365799927153,1
3609,104,Larynx,Left iTBS,Cons,Noise,22,2,0,0.61751919996459,1
3610,104,Larynx,Left iTBS,Cons,Noise,23,3,0,0.585242900066078,1
3611,104,Larynx,Left iTBS,Cons,Noise,24,2,0,0.728996600024402,1
3612,104,Larynx,Left iTBS,Cons,Noise,25,4,1,0.643942499998957,1
3613,104,Larynx,Left iTBS,Cons,Noise,26,2,0,0.653034299961291,1
3614,104,Larynx,Left iTBS,Cons,Noise,27,4,0,0.643401699955575,1
3615,104,Larynx,Left iTBS,Cons,Noise,28,3,1,0.8699927000561729,1
3616,104,Larynx,Left iTBS,Cons,Noise,29,5,1,0.596250999951735,1
3617,104,Larynx,Left iTBS,Cons,Noise,30,3,0,0.9368399999802929,1
3618,104,Larynx,Left iTBS,Cons,Noise,31,4,0,0.57836510008201,1
3619,104,Larynx,Left iTBS,Cons,Noise,32,2,0,0.820847099996172,1
3620,104,Larynx,Left iTBS,Cons,Noise,33,3,1,0.500936500029638,1
3621,104,Larynx,Left iTBS,Cons,Noise,34,4,1,0.77823110006284,1
3622,104,Larynx,Left iTBS,Cons,Noise,35,1,0,0.5789503999985749,1
3623,104,Larynx,Left iTBS,Cons,Noise,36,4,0,0.563412699964829,1
3624,104,Larynx,Left iTBS,Cons,Noise,37,3,0,0.5785955999745059,1
3625,104,Larynx,Left iTBS,Cons,Noise,38,5,0,0.5539499000879,1
3626,104,Larynx,Left iTBS,Cons,Noise,39,1,0,0.6251161999534821,1
3627,104,Larynx,Left iTBS,Cons,Noise,40,4,0,0.49839369999244804,1
3628,104,Larynx,Left iTBS,Cons,Noise,41,3,0,0.693959000054747,1
3629,104,Larynx,Left iTBS,Cons,Noise,42,1,1,0.74059479997959,1
3630,104,Larynx,Left iTBS,Cons,Noise,43,1,1,0.705010500038043,1
3631,104,Larynx,Left iTBS,Cons,Noise,44,3,1,0.7078619000967591,1
3632,104,Larynx,Left iTBS,Cons,Noise,45,1,0,0.62150989996735,1
3633,104,Larynx,Left iTBS,Cons,Noise,46,5,0,0.58435380004812,1
3634,104,Larynx,Left iTBS,Cons,Noise,47,4,0,0.629349699942395,1
3635,104,Larynx,Left iTBS,Cons,Noise,48,4,1,0.583147400058806,1
3636,104,Larynx,Left iTBS,Cons,Noise,49,2,1,0.637754699913785,1
3637,104,Larynx,Left iTBS,Cons,Noise,50,2,1,0.6303922999650239,1
3638,104,Larynx,Left iTBS,Cons,Noise,51,2,0,0.641518600052223,1
3639,104,Larynx,Left iTBS,Cons,Noise,52,3,0,0.553612599964254,1
3640,104,Larynx,Left iTBS,Cons,Noise,53,3,0,0.6020533000119029,1
3641,104,Larynx,Left iTBS,Cons,Noise,54,4,0,0.904318299959414,1
3642,104,Larynx,Left iTBS,Cons,Noise,55,3,0,0.6784545000409711,1
3643,104,Larynx,Left iTBS,Cons,Noise,56,4,0,0.604836200014688,1
3644,104,Larynx,Left iTBS,Cons,Noise,57,5,1,0.602147600031458,1
3645,104,Larynx,Left iTBS,Cons,Noise,58,2,0,0.745653599966317,1
3646,104,Larynx,Left iTBS,Cons,Noise,59,5,0,0.440752599970438,1
3647,104,Larynx,Left iTBS,Cons,Noise,60,3,0,0.6260475000599399,1
3648,104,Larynx,Left iTBS,Cons,Noise,61,5,1,0.6007666999939829,1
3649,104,Larynx,Left iTBS,Cons,Noise,62,3,0,0.68935939995572,1
3650,104,Larynx,Left iTBS,Cons,Noise,63,2,0,0.611071599996649,1
3651,104,Larynx,Left iTBS,Cons,Noise,64,3,1,0.67268309998326,1
3652,104,Larynx,Left iTBS,Cons,Noise,65,1,0,0.607379500055686,1
3653,104,Larynx,Left iTBS,Cons,Noise,66,4,0,0.7064569999929521,1
3654,104,Larynx,Left iTBS,Cons,Noise,67,2,0,0.665558299981058,1
3655,104,Larynx,Left iTBS,Cons,Noise,68,4,1,0.651990100042894,1
3656,104,Larynx,Left iTBS,Cons,Noise,69,2,0,0.5844832001021129,1
3657,104,Larynx,Left iTBS,Cons,Noise,70,1,0,0.662530299974605,1
3658,104,Larynx,Left iTBS,Cons,Noise,71,3,1,0.7248259999323641,1
3659,104,Larynx,Left iTBS,Cons,Noise,72,4,0,0.654722700011916,1
3660,104,Larynx,Left iTBS,Cons,Noise,73,3,0,0.576687900000252,1
3661,104,Larynx,Left iTBS,Cons,Noise,74,2,1,0.548440099926665,1
3662,104,Larynx,Left iTBS,Cons,Noise,75,3,0,0.6520349000347779,1
3663,104,Larynx,Left iTBS,Cons,Noise,76,5,1,0.7454411999788141,1
3664,104,Larynx,Left iTBS,Cons,Noise,77,1,0,0.617827699985355,1
3665,104,Larynx,Left iTBS,Cons,Noise,78,5,0,0.647039199946448,1
3666,104,Larynx,Left iTBS,Cons,Noise,79,5,0,0.6490521999076011,1
3667,104,Larynx,Left iTBS,Cons,Noise,80,2,0,0.583731999970041,1
3668,104,Larynx,Left iTBS,Cons,Noise,81,4,1,0.619928000029176,1
3669,104,Larynx,Left iTBS,Cons,Noise,82,2,1,0.645847600069828,1
3670,104,Larynx,Left iTBS,Cons,Noise,83,1,0,0.566481300047599,1
3671,104,Larynx,Left iTBS,Cons,Noise,84,3,1,0.715305799967609,1
3672,104,Larynx,Left iTBS,Cons,Noise,85,3,1,0.762928899959661,1
3673,104,Larynx,Left iTBS,Cons,Noise,86,2,0,0.51398499996867,1
3674,104,Larynx,Left iTBS,Cons,Noise,87,2,0,0.5282272000331429,1
3675,104,Larynx,Left iTBS,Cons,Noise,88,1,0,0.670350699918345,1
3676,104,Larynx,Left iTBS,Cons,Noise,89,3,0,0.7349926000460981,1
3677,104,Larynx,Left iTBS,Cons,Noise,90,4,0,0.729419199982658,1
3678,104,Larynx,Left iTBS,Cons,Noise,91,3,0,0.802479499951005,1
3679,104,Larynx,Left iTBS,Cons,Noise,92,5,0,0.6167115999851379,1
3680,104,Larynx,Left iTBS,Cons,Noise,93,1,1,0.6636936999857429,1
3681,104,Larynx,Left iTBS,Cons,Noise,94,4,0,0.5825745000038299,1
3682,104,Larynx,Left iTBS,Cons,Noise,95,5,0,0.622077799984254,1
3683,104,Larynx,Left iTBS,Cons,Noise,96,3,0,0.605050800018944,1
3684,104,Larynx,Left iTBS,Cons,Noise,97,2,0,0.979757699999027,1
3685,104,Larynx,Left iTBS,Cons,Noise,98,1,0,0.658511699992232,1
3686,104,Larynx,Left iTBS,Cons,Noise,99,2,0,0.576414300012402,1
3687,104,Larynx,Left iTBS,Cons,Noise,100,3,0,0.642957500065677,1
3688,104,Larynx,Left iTBS,Cons,Noise,101,4,1,0.6333593999734151,1
3689,104,Larynx,Left iTBS,Cons,Noise,102,3,0,0.5389167999383061,1
3690,104,Larynx,Left iTBS,Cons,Noise,103,5,0,0.5213374999584629,1
3691,104,Larynx,Left iTBS,Cons,Noise,104,4,1,0.736460600048304,1
3692,104,Larynx,Left iTBS,Cons,Noise,105,1,0,0.5993698000675071,1
3693,104,Larynx,Left iTBS,Cons,Noise,106,2,0,0.5928169999970121,1
3694,104,Larynx,Left iTBS,Cons,Noise,107,3,0,0.47972440009471,1
3695,104,Larynx,Left iTBS,Cons,Noise,108,5,0,0.491712099988945,1
3696,104,Larynx,Left iTBS,Cons,Noise,109,5,1,0.5365025999490171,1
3697,104,Larynx,Left iTBS,Cons,Noise,110,4,0,0.692718100035563,1
3698,104,Larynx,Left iTBS,Cons,Noise,111,4,1,0.595790999941528,1
3699,104,Larynx,Left iTBS,Cons,Noise,112,4,1,0.6379605000838641,1
3700,104,Larynx,Left iTBS,Cons,Noise,113,3,0,0.6241120999911801,1
3701,104,Larynx,Left iTBS,Cons,Noise,114,2,0,0.559775399975479,1
3702,104,Larynx,Left iTBS,Cons,Noise,115,1,0,0.669035700033419,1
3703,104,Larynx,Left iTBS,Cons,Noise,116,3,1,0.5116760000819339,1
3704,104,Larynx,Left iTBS,Cons,Noise,117,3,0,0.542744300095364,1
3705,104,Larynx,Left iTBS,Cons,Noise,118,5,1,0.570500500034541,1
3706,104,Larynx,Left iTBS,Cons,Noise,119,1,0,0.508701500017196,1
3707,104,Larynx,Left iTBS,Cons,Noise,120,2,0,0.6990841000806539,1
3708,104,Larynx,Left iTBS,Cons,Noise,121,1,0,0.624552399967797,1
3709,104,Larynx,Left iTBS,Cons,Noise,122,3,1,0.6761351000750438,1
3710,104,Larynx,Left iTBS,Cons,Noise,123,2,0,0.642812500009313,1
3711,104,Larynx,Left iTBS,Cons,Noise,124,2,0,0.7916016000090171,1
3712,104,Larynx,Left iTBS,Cons,Noise,125,3,0,0.688585099996999,1
3713,104,Larynx,Left iTBS,Cons,Noise,126,5,1,0.58804289996624,1
3714,104,Larynx,Left iTBS,Cons,Noise,127,3,1,0.546417500008829,1
3715,104,Larynx,Left iTBS,Cons,Noise,128,3,0,0.6358237999957049,1
3716,104,Larynx,Left iTBS,Cons,Noise,129,3,1,0.6282445000251761,1
3717,104,Larynx,Left iTBS,Cons,Noise,130,2,1,0.583312199916691,1
3718,104,Larynx,Left iTBS,Cons,Noise,131,4,0,0.6102659000316629,1
3719,104,Larynx,Left iTBS,Cons,Noise,132,4,1,0.599187399959192,1
3720,104,Larynx,Left iTBS,Cons,Noise,133,3,1,0.519704999984242,1
3721,104,Larynx,Left iTBS,Cons,Noise,134,5,1,0.7071357000386341,1
3722,104,Larynx,Left iTBS,Cons,Noise,135,3,1,0.546138499979861,1
3723,104,Larynx,Left iTBS,Cons,Noise,136,4,0,0.771421500016004,1
3724,104,Larynx,Left iTBS,Cons,Noise,137,4,1,0.545985300093889,1
3725,104,Larynx,Left iTBS,Cons,Noise,138,4,1,0.523385899956338,1
3726,104,Larynx,Left iTBS,Cons,Noise,139,3,1,0.568143600015901,1
3727,104,Larynx,Left iTBS,Cons,Noise,140,3,1,0.5184466000646349,1
3728,104,Larynx,Left iTBS,Cons,Noise,141,4,1,0.49653430003672794,1
3729,104,Larynx,Left iTBS,Cons,Noise,142,5,1,0.6413304000161589,1
3730,104,Larynx,Left iTBS,Cons,Noise,143,2,0,0.467205099994317,1
3731,104,Larynx,Left iTBS,Cons,Noise,144,1,0,0.502059300080873,1
3732,104,Larynx,Left iTBS,Cons,Noise,145,1,0,0.532610299997032,1
3733,104,Larynx,Left iTBS,Cons,Noise,146,3,0,0.530321400030516,1
3734,104,Larynx,Left iTBS,Cons,Noise,147,2,1,0.5597933999961241,1
3735,104,Larynx,Left iTBS,Cons,Noise,148,2,1,0.573776000062935,1
3736,104,Larynx,Left iTBS,Cons,Noise,149,1,1,0.476915600011125,1
3737,104,Larynx,Left iTBS,Cons,Noise,150,5,1,0.6435906999977309,1
3738,104,Larynx,Left iTBS,Cons,Noise,151,5,1,0.8138492000289258,1
3739,104,Larynx,Left iTBS,Cons,Noise,152,4,0,0.612631399999373,1
3740,104,Larynx,Left iTBS,Cons,Noise,153,2,0,0.6964409999782221,1
3741,104,Larynx,Left iTBS,Cons,Noise,154,3,0,0.619175300002098,1
3742,104,Larynx,Left iTBS,Cons,Noise,155,4,1,0.5855995999881999,1
3743,104,Larynx,Left iTBS,Cons,Noise,156,1,0,0.6057861999142921,1
6084,104,Larynx,Sham,Cons,Noise,1,3,1,0.7045690999948421,1
6085,104,Larynx,Sham,Cons,Noise,2,4,0,0.634262199979275,1
6086,104,Larynx,Sham,Cons,Noise,3,4,0,0.5703164000296971,1
6087,104,Larynx,Sham,Cons,Noise,4,5,0,0.599460900004487,1
6088,104,Larynx,Sham,Cons,Noise,5,4,0,0.511945899983402,1
6089,104,Larynx,Sham,Cons,Noise,6,4,0,0.603185699961614,1
6090,104,Larynx,Sham,Cons,Noise,7,5,0,0.527800299983937,1
6091,104,Larynx,Sham,Cons,Noise,8,5,0,0.58426709997002,1
6092,104,Larynx,Sham,Cons,Noise,9,1,0,0.5979781000060029,1
6093,104,Larynx,Sham,Cons,Noise,10,3,1,0.534125999954995,1
6094,104,Larynx,Sham,Cons,Noise,11,5,0,0.620738499972504,1
6095,104,Larynx,Sham,Cons,Noise,12,2,1,0.6293386000324971,1
6096,104,Larynx,Sham,Cons,Noise,13,3,0,0.7168330000131391,1
6097,104,Larynx,Sham,Cons,Noise,14,1,0,0.46161960001336405,1
6098,104,Larynx,Sham,Cons,Noise,15,1,0,0.530113900022116,1
6099,104,Larynx,Sham,Cons,Noise,16,2,0,0.494081200042274,1
6100,104,Larynx,Sham,Cons,Noise,17,3,1,0.533794199989643,1
6101,104,Larynx,Sham,Cons,Noise,18,1,0,0.51757909997832,1
6102,104,Larynx,Sham,Cons,Noise,19,3,0,0.45426359999692106,1
6103,104,Larynx,Sham,Cons,Noise,20,3,0,0.44711270002881104,1
6104,104,Larynx,Sham,Cons,Noise,21,3,1,0.628207800036762,1
6105,104,Larynx,Sham,Cons,Noise,22,4,0,0.440477399970405,1
6106,104,Larynx,Sham,Cons,Noise,23,4,0,0.5962762000272049,1
6107,104,Larynx,Sham,Cons,Noise,24,5,0,0.42224909999640703,1
6108,104,Larynx,Sham,Cons,Noise,25,3,1,0.530301199993119,1
6109,104,Larynx,Sham,Cons,Noise,26,3,0,0.632508200011216,1
6110,104,Larynx,Sham,Cons,Noise,27,3,0,0.6550667000119571,1
6111,104,Larynx,Sham,Cons,Noise,28,1,0,0.45015330001479,1
6112,104,Larynx,Sham,Cons,Noise,29,4,0,0.5230055000283761,1
6113,104,Larynx,Sham,Cons,Noise,30,2,1,0.543967099976726,1
6114,104,Larynx,Sham,Cons,Noise,31,2,1,0.5515941999619829,1
6115,104,Larynx,Sham,Cons,Noise,32,3,0,0.537191899958998,1
6116,104,Larynx,Sham,Cons,Noise,33,4,1,0.501836399955209,1
6117,104,Larynx,Sham,Cons,Noise,34,5,1,0.528931399981957,1
6118,104,Larynx,Sham,Cons,Noise,35,2,1,0.44477000000188105,1
6119,104,Larynx,Sham,Cons,Noise,36,2,0,0.459890900005121,1
6120,104,Larynx,Sham,Cons,Noise,37,2,0,0.5159979000454771,1
6121,104,Larynx,Sham,Cons,Noise,38,1,1,0.553571099997498,1
6122,104,Larynx,Sham,Cons,Noise,39,2,1,0.779230100044515,1
6123,104,Larynx,Sham,Cons,Noise,40,4,0,0.5388267000089401,1
6124,104,Larynx,Sham,Cons,Noise,41,3,1,0.534894999989774,1
6125,104,Larynx,Sham,Cons,Noise,42,4,0,0.539222899999004,1
6126,104,Larynx,Sham,Cons,Noise,43,1,0,0.47255900001619006,1
6127,104,Larynx,Sham,Cons,Noise,44,1,0,0.45865779998712203,1
6128,104,Larynx,Sham,Cons,Noise,45,2,0,0.502764799981378,1
6129,104,Larynx,Sham,Cons,Noise,46,4,1,0.552478400000837,1
6130,104,Larynx,Sham,Cons,Noise,47,4,1,0.6155131999985309,1
6131,104,Larynx,Sham,Cons,Noise,48,5,0,0.527389099996071,1
6132,104,Larynx,Sham,Cons,Noise,49,4,0,0.472957799967844,1
6133,104,Larynx,Sham,Cons,Noise,50,2,0,0.483382100006565,1
6134,104,Larynx,Sham,Cons,Noise,51,1,0,0.45825669995974705,1
6135,104,Larynx,Sham,Cons,Noise,52,3,0,0.45981019997270794,1
6136,104,Larynx,Sham,Cons,Noise,53,5,1,0.534039199992549,1
6137,104,Larynx,Sham,Cons,Noise,54,2,0,0.437905700004194,1
6138,104,Larynx,Sham,Cons,Noise,55,2,1,0.42867920000571796,1
6139,104,Larynx,Sham,Cons,Noise,56,3,0,0.52454700000817,1
6140,104,Larynx,Sham,Cons,Noise,57,5,1,0.5682513000210749,1
6141,104,Larynx,Sham,Cons,Noise,58,3,0,0.47677070001373106,1
6142,104,Larynx,Sham,Cons,Noise,59,3,1,0.47844120004447205,1
6143,104,Larynx,Sham,Cons,Noise,60,2,0,0.542068700015079,1
6144,104,Larynx,Sham,Cons,Noise,61,3,0,0.44582880003145003,1
6145,104,Larynx,Sham,Cons,Noise,62,4,1,0.6243189999950121,1
6146,104,Larynx,Sham,Cons,Noise,63,3,0,0.511955499998294,1
6147,104,Larynx,Sham,Cons,Noise,64,5,0,0.429022299998906,1
6148,104,Larynx,Sham,Cons,Noise,65,3,0,0.556059200025629,1
6149,104,Larynx,Sham,Cons,Noise,66,3,1,0.5630203000037,1
6150,104,Larynx,Sham,Cons,Noise,67,4,1,0.637968500028364,1
6151,104,Larynx,Sham,Cons,Noise,68,1,0,0.457292900013272,1
6152,104,Larynx,Sham,Cons,Noise,69,3,1,0.515682599972934,1
6153,104,Larynx,Sham,Cons,Noise,70,5,0,0.42332499998156,1
6154,104,Larynx,Sham,Cons,Noise,71,3,0,0.514826600032393,1
6155,104,Larynx,Sham,Cons,Noise,72,4,0,0.5344845000072379,1
6156,104,Larynx,Sham,Cons,Noise,73,5,1,0.48898859997279903,1
6157,104,Larynx,Sham,Cons,Noise,74,2,0,0.482253200025298,1
6158,104,Larynx,Sham,Cons,Noise,75,1,0,0.591645699983928,1
6159,104,Larynx,Sham,Cons,Noise,76,2,0,0.591217699984554,1
6160,104,Larynx,Sham,Cons,Noise,77,1,1,0.561980600003153,1
6161,104,Larynx,Sham,Cons,Noise,78,2,0,0.5519636999815699,1
6162,104,Larynx,Sham,Cons,Noise,79,5,0,0.357279099989682,1
6163,104,Larynx,Sham,Cons,Noise,80,2,0,0.493081099994015,1
6164,104,Larynx,Sham,Cons,Noise,81,2,0,0.554301299969666,1
6165,104,Larynx,Sham,Cons,Noise,82,2,1,0.555633499985561,1
6166,104,Larynx,Sham,Cons,Noise,83,4,0,0.466396099945996,1
6167,104,Larynx,Sham,Cons,Noise,84,2,0,0.502558099979069,1
6168,104,Larynx,Sham,Cons,Noise,85,2,0,0.5941675000358371,1
6169,104,Larynx,Sham,Cons,Noise,86,1,0,0.601374100020621,1
6170,104,Larynx,Sham,Cons,Noise,87,5,1,0.508793399960268,1
6171,104,Larynx,Sham,Cons,Noise,88,5,0,0.457331000012346,1
6172,104,Larynx,Sham,Cons,Noise,89,3,0,0.438295900006779,1
6173,104,Larynx,Sham,Cons,Noise,90,3,1,0.47956039995187894,1
6174,104,Larynx,Sham,Cons,Noise,91,3,0,0.48083079996286,1
6175,104,Larynx,Sham,Cons,Noise,92,4,0,0.41261810000287397,1
6176,104,Larynx,Sham,Cons,Noise,93,4,0,0.429835400020238,1
6177,104,Larynx,Sham,Cons,Noise,94,5,0,0.5059906999813389,1
6178,104,Larynx,Sham,Cons,Noise,95,4,1,0.659797900007106,1
6179,104,Larynx,Sham,Cons,Noise,96,5,0,0.5132905000355089,1
6180,104,Larynx,Sham,Cons,Noise,97,1,0,0.5569985000183809,1
6181,104,Larynx,Sham,Cons,Noise,98,3,1,0.5106844999827439,1
6182,104,Larynx,Sham,Cons,Noise,99,1,0,0.5829418000066651,1
6183,104,Larynx,Sham,Cons,Noise,100,3,0,0.518174399971031,1
6184,104,Larynx,Sham,Cons,Noise,101,1,0,0.48493139998754503,1
6185,104,Larynx,Sham,Cons,Noise,102,4,0,0.479815999977291,1
6186,104,Larynx,Sham,Cons,Noise,103,3,1,0.527302199974656,1
6187,104,Larynx,Sham,Cons,Noise,104,4,0,0.530944800004363,1
6188,104,Larynx,Sham,Cons,Noise,105,2,0,0.46577080001588894,1
6189,104,Larynx,Sham,Cons,Noise,106,3,0,0.49391679995460397,1
6190,104,Larynx,Sham,Cons,Noise,107,3,1,0.624888199963607,1
6191,104,Larynx,Sham,Cons,Noise,108,5,1,0.519102799997199,1
6192,104,Larynx,Sham,Cons,Noise,109,3,0,0.5277508999570271,1
6193,104,Larynx,Sham,Cons,Noise,110,2,1,0.44157199998153396,1
6194,104,Larynx,Sham,Cons,Noise,111,1,1,0.535268299980089,1
6195,104,Larynx,Sham,Cons,Noise,112,4,1,0.550816199975088,1
6196,104,Larynx,Sham,Cons,Noise,113,3,1,0.46919809997780204,1
6197,104,Larynx,Sham,Cons,Noise,114,4,1,0.47575400001369395,1
6198,104,Larynx,Sham,Cons,Noise,115,1,0,0.599771199980751,1
6199,104,Larynx,Sham,Cons,Noise,116,2,0,0.5917376999859699,1
6200,104,Larynx,Sham,Cons,Noise,117,3,1,0.43823280005017295,1
6201,104,Larynx,Sham,Cons,Noise,118,1,0,0.544654599973001,1
6202,104,Larynx,Sham,Cons,Noise,119,3,1,0.33843790000537394,1
6203,104,Larynx,Sham,Cons,Noise,120,1,0,0.546127800014801,1
6204,104,Larynx,Sham,Cons,Noise,121,3,1,0.42572310002287894,1
6205,104,Larynx,Sham,Cons,Noise,122,2,0,0.514027600002009,1
6206,104,Larynx,Sham,Cons,Noise,123,4,1,0.501942200004123,1
6207,104,Larynx,Sham,Cons,Noise,124,4,1,0.49466529994970204,1
6208,104,Larynx,Sham,Cons,Noise,125,3,1,0.413927000015974,1
6209,104,Larynx,Sham,Cons,Noise,126,3,0,0.481450100021902,1
6210,104,Larynx,Sham,Cons,Noise,127,2,1,0.46849230001680603,1
6211,104,Larynx,Sham,Cons,Noise,128,4,0,0.6142665999941529,1
6212,104,Larynx,Sham,Cons,Noise,129,5,1,0.489970700000413,1
6213,104,Larynx,Sham,Cons,Noise,130,2,0,0.5460037000011649,1
6214,104,Larynx,Sham,Cons,Noise,131,1,0,0.586930599994957,1
6215,104,Larynx,Sham,Cons,Noise,132,2,1,0.505853400041815,1
6216,104,Larynx,Sham,Cons,Noise,133,5,0,0.589659099990968,1
6217,104,Larynx,Sham,Cons,Noise,134,3,0,0.5287172999815081,1
6218,104,Larynx,Sham,Cons,Noise,135,3,0,0.656450099952053,1
6219,104,Larynx,Sham,Cons,Noise,136,3,1,0.47566120000556106,1
6220,104,Larynx,Sham,Cons,Noise,137,2,0,0.606983600009698,1
6221,104,Larynx,Sham,Cons,Noise,138,3,0,0.506654200027697,1
6222,104,Larynx,Sham,Cons,Noise,139,4,1,0.5446915000211451,1
6223,104,Larynx,Sham,Cons,Noise,140,3,0,0.48069389996817297,1
6224,104,Larynx,Sham,Cons,Noise,141,4,1,0.574376399978064,1
6225,104,Larynx,Sham,Cons,Noise,142,1,0,0.5443946999730539,1
6226,104,Larynx,Sham,Cons,Noise,143,5,0,0.484956400003284,1
6227,104,Larynx,Sham,Cons,Noise,144,2,0,0.49901450000470504,1
6228,104,Larynx,Sham,Cons,Noise,145,3,0,0.62965230003465,1
6229,104,Larynx,Sham,Cons,Noise,146,4,1,0.6098899000207889,1
6230,104,Larynx,Sham,Cons,Noise,147,1,0,0.546970000024885,1
6231,104,Larynx,Sham,Cons,Noise,148,1,0,0.53007479995722,1
6232,104,Larynx,Sham,Cons,Noise,149,2,0,0.583951300010085,1
6233,104,Larynx,Sham,Cons,Noise,150,5,1,0.519449100014754,1
6234,104,Larynx,Sham,Cons,Noise,151,5,1,0.5844054999761279,1
6235,104,Larynx,Sham,Cons,Noise,152,5,1,0.464420700038318,1
6236,104,Larynx,Sham,Cons,Noise,153,4,0,0.7181364999851211,1
6237,104,Larynx,Sham,Cons,Noise,154,3,1,0.530419800023083,1
6238,104,Larynx,Sham,Cons,Noise,155,2,1,0.447187699959613,1
6239,104,Larynx,Sham,Cons,Noise,156,4,0,0.503069400030654,1
6708,123,Larynx,Left iTBS,Cons,Noise,1,5,1,0.49337060000107197,1
6709,123,Larynx,Left iTBS,Cons,Noise,2,3,1,0.423635399987688,1
6710,123,Larynx,Left iTBS,Cons,Noise,3,3,1,0.37936589999299,1
6711,123,Larynx,Left iTBS,Cons,Noise,4,3,1,0.416094600004726,1
6712,123,Larynx,Left iTBS,Cons,Noise,5,4,1,0.405275500001153,1
6713,123,Larynx,Left iTBS,Cons,Noise,6,2,1,0.4130108999961521,1
6714,123,Larynx,Left iTBS,Cons,Noise,7,1,0,0.49158760000136703,1
6715,123,Larynx,Left iTBS,Cons,Noise,8,3,1,0.364666200010106,1
6716,123,Larynx,Left iTBS,Cons,Noise,9,5,1,0.37448100000619894,1
6717,123,Larynx,Left iTBS,Cons,Noise,10,4,1,0.369363600009819,1
6718,123,Larynx,Left iTBS,Cons,Noise,11,1,0,0.536240700006601,1
6719,123,Larynx,Left iTBS,Cons,Noise,12,4,1,0.338053500003298,1
6720,123,Larynx,Left iTBS,Cons,Noise,13,1,1,0.389943099988159,1
6721,123,Larynx,Left iTBS,Cons,Noise,14,4,1,0.3605096999963279,1
6722,123,Larynx,Left iTBS,Cons,Noise,15,4,1,0.401364399993327,1
6723,123,Larynx,Left iTBS,Cons,Noise,16,4,1,0.38447599999199206,1
6724,123,Larynx,Left iTBS,Cons,Noise,17,3,1,0.5353803000034529,1
6725,123,Larynx,Left iTBS,Cons,Noise,18,5,1,0.470053400000324,1
6726,123,Larynx,Left iTBS,Cons,Noise,19,2,1,0.591029899995192,1
6727,123,Larynx,Left iTBS,Cons,Noise,20,3,1,0.637406499998178,1
6728,123,Larynx,Left iTBS,Cons,Noise,21,5,1,0.594277199998032,1
6729,123,Larynx,Left iTBS,Cons,Noise,22,3,1,0.69755699999223,1
6730,123,Larynx,Left iTBS,Cons,Noise,23,4,1,0.618683900000178,1
6731,123,Larynx,Left iTBS,Cons,Noise,24,3,1,0.584714900003746,1
6732,123,Larynx,Left iTBS,Cons,Noise,25,5,1,0.567264400000568,1
6733,123,Larynx,Left iTBS,Cons,Noise,26,2,0,0.5807242000009859,1
6734,123,Larynx,Left iTBS,Cons,Noise,27,2,0,1.1776711999991698,1
6735,123,Larynx,Left iTBS,Cons,Noise,28,3,1,0.905428300000494,1
6736,123,Larynx,Left iTBS,Cons,Noise,29,3,1,0.423990399998729,1
6737,123,Larynx,Left iTBS,Cons,Noise,30,1,0,0.6102085000020451,1
6738,123,Larynx,Left iTBS,Cons,Noise,31,2,1,0.442740700003924,1
6739,123,Larynx,Left iTBS,Cons,Noise,32,4,1,0.44606449999264397,1
6740,123,Larynx,Left iTBS,Cons,Noise,33,1,1,0.38912339998933004,1
6741,123,Larynx,Left iTBS,Cons,Noise,34,2,0,0.6419060999905921,1
6742,123,Larynx,Left iTBS,Cons,Noise,35,2,1,0.6919501999946078,1
6743,123,Larynx,Left iTBS,Cons,Noise,36,5,1,0.510166399995796,1
6744,123,Larynx,Left iTBS,Cons,Noise,37,3,1,0.38127349999558596,1
6745,123,Larynx,Left iTBS,Cons,Noise,38,1,1,0.42126740000094304,1
6746,123,Larynx,Left iTBS,Cons,Noise,39,2,1,0.548554299995885,1
6747,123,Larynx,Left iTBS,Cons,Noise,40,4,0,0.646114100003615,1
6748,123,Larynx,Left iTBS,Cons,Noise,41,4,1,0.629262299989932,1
6749,123,Larynx,Left iTBS,Cons,Noise,42,1,0,0.6728348999895389,1
6750,123,Larynx,Left iTBS,Cons,Noise,43,5,1,0.5151493000012121,1
6751,123,Larynx,Left iTBS,Cons,Noise,44,5,1,0.37942779999866605,1
6752,123,Larynx,Left iTBS,Cons,Noise,45,4,1,0.342673799998011,1
6753,123,Larynx,Left iTBS,Cons,Noise,46,2,1,0.394818500004476,1
6754,123,Larynx,Left iTBS,Cons,Noise,47,3,1,0.482675699997344,1
6755,123,Larynx,Left iTBS,Cons,Noise,48,3,1,0.6107359000016,1
6756,123,Larynx,Left iTBS,Cons,Noise,49,4,1,0.510759500000859,1
6757,123,Larynx,Left iTBS,Cons,Noise,50,2,1,0.43862739999895,1
6758,123,Larynx,Left iTBS,Cons,Noise,51,4,1,0.44159079999371903,1
6759,123,Larynx,Left iTBS,Cons,Noise,52,2,1,0.459187399988878,1
6760,123,Larynx,Left iTBS,Cons,Noise,53,1,1,0.42103129999304706,1
6761,123,Larynx,Left iTBS,Cons,Noise,54,3,1,0.652380500003346,1
6762,123,Larynx,Left iTBS,Cons,Noise,55,1,0,0.7760428000037791,1
6763,123,Larynx,Left iTBS,Cons,Noise,56,4,1,0.511735200008843,1
6764,123,Larynx,Left iTBS,Cons,Noise,57,4,1,0.45206930000858797,1
6765,123,Larynx,Left iTBS,Cons,Noise,58,2,0,0.7057101999962472,1
6766,123,Larynx,Left iTBS,Cons,Noise,59,2,1,0.475887099993997,1
6767,123,Larynx,Left iTBS,Cons,Noise,60,3,1,0.47291700000641895,1
6768,123,Larynx,Left iTBS,Cons,Noise,61,3,1,0.641544400001294,1
6769,123,Larynx,Left iTBS,Cons,Noise,62,2,0,1.0174355999915898,1
6770,123,Larynx,Left iTBS,Cons,Noise,63,5,1,0.48680790000071295,1
6771,123,Larynx,Left iTBS,Cons,Noise,64,2,1,0.3973476000101071,1
6772,123,Larynx,Left iTBS,Cons,Noise,65,3,1,0.533205799991265,1
6773,123,Larynx,Left iTBS,Cons,Noise,66,3,1,0.591183299999102,1
6774,123,Larynx,Left iTBS,Cons,Noise,67,5,1,0.5510006999975301,1
6775,123,Larynx,Left iTBS,Cons,Noise,68,5,1,0.504831500002183,1
6776,123,Larynx,Left iTBS,Cons,Noise,69,1,0,0.6705086000001761,1
6777,123,Larynx,Left iTBS,Cons,Noise,70,4,1,0.521099000005051,1
6778,123,Larynx,Left iTBS,Cons,Noise,71,3,1,0.45666180000989703,1
6779,123,Larynx,Left iTBS,Cons,Noise,72,1,0,0.639885800002958,1
6780,123,Larynx,Left iTBS,Cons,Noise,73,3,1,0.4214455000037561,1
6781,123,Larynx,Left iTBS,Cons,Noise,74,5,1,0.465947099990444,1
6782,123,Larynx,Left iTBS,Cons,Noise,75,1,0,0.61946979998902,1
6783,123,Larynx,Left iTBS,Cons,Noise,76,3,1,0.611938399990322,1
6784,123,Larynx,Left iTBS,Cons,Noise,77,2,0,0.7698449000017721,1
6785,123,Larynx,Left iTBS,Cons,Noise,78,3,1,0.47223980000126203,1
6786,123,Larynx,Left iTBS,Cons,Noise,79,2,1,0.529160100006266,1
6787,123,Larynx,Left iTBS,Cons,Noise,80,2,1,0.5657145000004681,1
6788,123,Larynx,Left iTBS,Cons,Noise,81,1,0,0.576961800004938,1
6789,123,Larynx,Left iTBS,Cons,Noise,82,2,1,0.6540156999981259,1
6790,123,Larynx,Left iTBS,Cons,Noise,83,4,1,0.5674403000011811,1
6791,123,Larynx,Left iTBS,Cons,Noise,84,3,1,0.543586500003585,1
6792,123,Larynx,Left iTBS,Cons,Noise,85,3,1,0.398229799990077,1
6793,123,Larynx,Left iTBS,Cons,Noise,86,1,0,0.8137477999989641,1
6794,123,Larynx,Left iTBS,Cons,Noise,87,3,1,0.515275700003258,1
6795,123,Larynx,Left iTBS,Cons,Noise,88,4,1,0.5896127999876629,1
6796,123,Larynx,Left iTBS,Cons,Noise,89,5,1,0.49985989999549896,1
6797,123,Larynx,Left iTBS,Cons,Noise,90,3,1,0.46432759999879597,1
6798,123,Larynx,Left iTBS,Cons,Noise,91,3,1,0.5195136999973329,1
6799,123,Larynx,Left iTBS,Cons,Noise,92,5,1,0.4358013000019129,1
6800,123,Larynx,Left iTBS,Cons,Noise,93,2,1,0.5064953999972199,1
6801,123,Larynx,Left iTBS,Cons,Noise,94,1,0,0.7573446000023979,1
6802,123,Larynx,Left iTBS,Cons,Noise,95,4,1,0.633082599990303,1
6803,123,Larynx,Left iTBS,Cons,Noise,96,1,0,0.6500984000012979,1
6804,123,Larynx,Left iTBS,Cons,Noise,97,2,0,0.6835140000039251,1
6805,123,Larynx,Left iTBS,Cons,Noise,98,4,1,0.564235300000291,1
6806,123,Larynx,Left iTBS,Cons,Noise,99,2,1,0.7028665999969229,1
6807,123,Larynx,Left iTBS,Cons,Noise,100,5,1,0.50254760000098,1
6808,123,Larynx,Left iTBS,Cons,Noise,101,1,0,0.695609699992929,1
6809,123,Larynx,Left iTBS,Cons,Noise,102,4,1,0.520095200001379,1
6810,123,Larynx,Left iTBS,Cons,Noise,103,5,1,0.40499940000881895,1
6811,123,Larynx,Left iTBS,Cons,Noise,104,2,0,0.6406293000036379,1
6812,123,Larynx,Left iTBS,Cons,Noise,105,3,1,0.429774399992311,1
6813,123,Larynx,Left iTBS,Cons,Noise,106,5,1,0.620251100001042,1
6814,123,Larynx,Left iTBS,Cons,Noise,107,3,1,0.49175039998954206,1
6815,123,Larynx,Left iTBS,Cons,Noise,108,4,1,0.431563899997855,1
6816,123,Larynx,Left iTBS,Cons,Noise,109,3,1,0.46396770000865206,1
6817,123,Larynx,Left iTBS,Cons,Noise,110,4,1,0.546198500000173,1
6818,123,Larynx,Left iTBS,Cons,Noise,111,1,0,0.527214699992328,1
6819,123,Larynx,Left iTBS,Cons,Noise,112,2,1,0.433724900009111,1
6820,123,Larynx,Left iTBS,Cons,Noise,113,5,1,0.503146500006551,1
6821,123,Larynx,Left iTBS,Cons,Noise,114,3,1,0.431339100003242,1
6822,123,Larynx,Left iTBS,Cons,Noise,115,4,1,0.426798300002702,1
6823,123,Larynx,Left iTBS,Cons,Noise,116,3,1,0.43790920000174105,1
6824,123,Larynx,Left iTBS,Cons,Noise,117,3,1,0.6516368000011429,1
6825,123,Larynx,Left iTBS,Cons,Noise,118,5,1,0.541215999997803,1
6826,123,Larynx,Left iTBS,Cons,Noise,119,5,1,0.430561000001035,1
6827,123,Larynx,Left iTBS,Cons,Noise,120,3,1,0.53936719999183,1
6828,123,Larynx,Left iTBS,Cons,Noise,121,3,1,0.5399451999983279,1
6829,123,Larynx,Left iTBS,Cons,Noise,122,1,0,0.486131199999363,1
6830,123,Larynx,Left iTBS,Cons,Noise,123,3,1,0.566135600005509,1
6831,123,Larynx,Left iTBS,Cons,Noise,124,2,1,0.3911686999927039,1
6832,123,Larynx,Left iTBS,Cons,Noise,125,3,1,0.468931700001122,1
6833,123,Larynx,Left iTBS,Cons,Noise,126,2,1,0.589333500000066,1
6834,123,Larynx,Left iTBS,Cons,Noise,127,4,1,0.520963000002666,1
6835,123,Larynx,Left iTBS,Cons,Noise,128,3,1,0.526557799996226,1
6836,123,Larynx,Left iTBS,Cons,Noise,129,5,1,0.45284119999269,1
6837,123,Larynx,Left iTBS,Cons,Noise,130,4,1,0.45597320000524605,1
6838,123,Larynx,Left iTBS,Cons,Noise,131,2,1,0.70839599998726,1
6839,123,Larynx,Left iTBS,Cons,Noise,132,4,1,0.561401399987517,1
6840,123,Larynx,Left iTBS,Cons,Noise,133,1,0,0.6451291999983371,1
6841,123,Larynx,Left iTBS,Cons,Noise,134,4,1,0.5182665000029371,1
6842,123,Larynx,Left iTBS,Cons,Noise,135,5,1,0.40984040001058003,1
6843,123,Larynx,Left iTBS,Cons,Noise,136,3,1,0.44123029999900604,1
6844,123,Larynx,Left iTBS,Cons,Noise,137,2,1,0.48152889999619203,1
6845,123,Larynx,Left iTBS,Cons,Noise,138,4,1,0.5850348999956619,1
6846,123,Larynx,Left iTBS,Cons,Noise,139,3,1,0.519220500005758,1
6847,123,Larynx,Left iTBS,Cons,Noise,140,3,1,0.49768760000006296,1
6848,123,Larynx,Left iTBS,Cons,Noise,141,1,0,0.49227550000068704,1
6849,123,Larynx,Left iTBS,Cons,Noise,142,3,1,0.39867919999233,1
6850,123,Larynx,Left iTBS,Cons,Noise,143,4,1,0.37033610000798906,1
6851,123,Larynx,Left iTBS,Cons,Noise,144,1,1,0.39661290000367405,1
6852,123,Larynx,Left iTBS,Cons,Noise,145,2,0,0.3865678000001939,1
6853,123,Larynx,Left iTBS,Cons,Noise,146,5,1,0.418654499997501,1
6854,123,Larynx,Left iTBS,Cons,Noise,147,2,1,0.453634699995746,1
6855,123,Larynx,Left iTBS,Cons,Noise,148,3,1,0.37780489999568106,1
6856,123,Larynx,Left iTBS,Cons,Noise,149,1,1,0.54878369999642,1
6857,123,Larynx,Left iTBS,Cons,Noise,150,2,0,0.43433799999184003,1
6858,123,Larynx,Left iTBS,Cons,Noise,151,2,1,0.36923749999550604,1
6859,123,Larynx,Left iTBS,Cons,Noise,152,4,1,0.462492799997563,1
6860,123,Larynx,Left iTBS,Cons,Noise,153,1,0,0.9919136999960759,1
6861,123,Larynx,Left iTBS,Cons,Noise,154,4,1,0.511770999990404,1
6862,123,Larynx,Left iTBS,Cons,Noise,155,3,1,0.42327959999966,1
6863,123,Larynx,Left iTBS,Cons,Noise,156,5,1,0.412792300005094,1
9204,123,Larynx,Sham,Cons,Noise,1,3,0,0.5749145000008871,1
9205,123,Larynx,Sham,Cons,Noise,2,3,1,0.49060799996368604,1
9206,123,Larynx,Sham,Cons,Noise,3,5,1,0.40578799997456394,1
9207,123,Larynx,Sham,Cons,Noise,4,1,1,0.34813419997226397,1
9208,123,Larynx,Sham,Cons,Noise,5,2,0,0.601764099905267,1
9209,123,Larynx,Sham,Cons,Noise,6,3,1,0.418503599939868,1
9210,123,Larynx,Sham,Cons,Noise,7,2,1,0.4330277999397371,1
9211,123,Larynx,Sham,Cons,Noise,8,2,1,0.5405459000030529,1
9212,123,Larynx,Sham,Cons,Noise,9,5,1,0.407439499977045,1
9213,123,Larynx,Sham,Cons,Noise,10,4,1,0.37019479996524796,1
9214,123,Larynx,Sham,Cons,Noise,11,5,1,0.404152599978261,1
9215,123,Larynx,Sham,Cons,Noise,12,1,1,0.36043389991391495,1
9216,123,Larynx,Sham,Cons,Noise,13,1,0,0.667414100025781,1
9217,123,Larynx,Sham,Cons,Noise,14,4,1,0.619005399988964,1
9218,123,Larynx,Sham,Cons,Noise,15,5,1,0.420127099961974,1
9219,123,Larynx,Sham,Cons,Noise,16,2,1,0.370456299977377,1
9220,123,Larynx,Sham,Cons,Noise,17,4,1,0.535850599990226,1
9221,123,Larynx,Sham,Cons,Noise,18,4,1,0.454573300085031,1
9222,123,Larynx,Sham,Cons,Noise,19,3,1,0.403668099897914,1
9223,123,Larynx,Sham,Cons,Noise,20,3,1,0.41921209997963205,1
9224,123,Larynx,Sham,Cons,Noise,21,2,1,0.43193349998909997,1
9225,123,Larynx,Sham,Cons,Noise,22,1,1,0.596568400040269,1
9226,123,Larynx,Sham,Cons,Noise,23,4,1,0.6597997999051589,1
9227,123,Larynx,Sham,Cons,Noise,24,3,1,0.39706230000592796,1
9228,123,Larynx,Sham,Cons,Noise,25,3,1,0.44377820007503005,1
9229,123,Larynx,Sham,Cons,Noise,26,3,1,0.46475769998505706,1
9230,123,Larynx,Sham,Cons,Noise,27,1,1,0.537170900031924,1
9231,123,Larynx,Sham,Cons,Noise,28,5,1,0.758179800002836,1
9232,123,Larynx,Sham,Cons,Noise,29,2,1,0.916667100042105,1
9233,123,Larynx,Sham,Cons,Noise,30,4,1,0.45220599998719996,1
9234,123,Larynx,Sham,Cons,Noise,31,2,1,0.594741299981251,1
9235,123,Larynx,Sham,Cons,Noise,32,3,1,0.58275040006265,1
9236,123,Larynx,Sham,Cons,Noise,33,3,1,0.7752295000245791,1
9237,123,Larynx,Sham,Cons,Noise,34,2,1,0.8996630000183359,1
9238,123,Larynx,Sham,Cons,Noise,35,4,1,0.76977190002799,1
9239,123,Larynx,Sham,Cons,Noise,36,3,1,0.6667490999680009,1
9240,123,Larynx,Sham,Cons,Noise,37,5,1,0.692242500022985,1
9241,123,Larynx,Sham,Cons,Noise,38,1,0,0.5506134999450301,1
9242,123,Larynx,Sham,Cons,Noise,39,4,1,0.5951401999918741,1
9243,123,Larynx,Sham,Cons,Noise,40,5,1,0.49536900001112394,1
9244,123,Larynx,Sham,Cons,Noise,41,3,1,0.37453490006737394,1
9245,123,Larynx,Sham,Cons,Noise,42,3,1,0.366795699927025,1
9246,123,Larynx,Sham,Cons,Noise,43,4,1,0.407638200093061,1
9247,123,Larynx,Sham,Cons,Noise,44,3,1,0.617710399907082,1
9248,123,Larynx,Sham,Cons,Noise,45,4,1,0.48978259996511,1
9249,123,Larynx,Sham,Cons,Noise,46,1,0,0.5927206000778821,1
9250,123,Larynx,Sham,Cons,Noise,47,3,1,0.503121200017631,1
9251,123,Larynx,Sham,Cons,Noise,48,2,1,0.333237200044096,1
9252,123,Larynx,Sham,Cons,Noise,49,1,1,0.421525200014003,1
9253,123,Larynx,Sham,Cons,Noise,50,4,1,0.528901700046845,1
9254,123,Larynx,Sham,Cons,Noise,51,3,1,0.43242960004135994,1
9255,123,Larynx,Sham,Cons,Noise,52,3,1,0.506872299942188,1
9256,123,Larynx,Sham,Cons,Noise,53,1,1,0.5613494999706751,1
9257,123,Larynx,Sham,Cons,Noise,54,5,1,0.743958299979568,1
9258,123,Larynx,Sham,Cons,Noise,55,2,0,0.6965740000596271,1
9259,123,Larynx,Sham,Cons,Noise,56,1,1,0.42717259994242296,1
9260,123,Larynx,Sham,Cons,Noise,57,4,1,0.447671299916692,1
9261,123,Larynx,Sham,Cons,Noise,58,4,1,0.5665579999331379,1
9262,123,Larynx,Sham,Cons,Noise,59,2,1,0.65519730001688,1
9263,123,Larynx,Sham,Cons,Noise,60,2,0,0.6788152999943121,1
9264,123,Larynx,Sham,Cons,Noise,61,4,1,0.44010530004743503,1
9265,123,Larynx,Sham,Cons,Noise,62,3,1,0.3545453000115229,1
9266,123,Larynx,Sham,Cons,Noise,63,2,1,0.34657759999390697,1
9267,123,Larynx,Sham,Cons,Noise,64,3,1,0.602922599995509,1
9268,123,Larynx,Sham,Cons,Noise,65,3,1,0.705033999984153,1
9269,123,Larynx,Sham,Cons,Noise,66,5,1,1.16979100008029,1
9270,123,Larynx,Sham,Cons,Noise,67,2,0,0.745809500105679,1
9271,123,Larynx,Sham,Cons,Noise,68,2,1,0.5309423999860879,1
9272,123,Larynx,Sham,Cons,Noise,69,4,1,0.474007199984044,1
9273,123,Larynx,Sham,Cons,Noise,70,5,1,0.38277849997393804,1
9274,123,Larynx,Sham,Cons,Noise,71,1,1,0.4523830000543971,1
9275,123,Larynx,Sham,Cons,Noise,72,5,1,0.49115889996755896,1
9276,123,Larynx,Sham,Cons,Noise,73,1,0,0.859930200036615,1
9277,123,Larynx,Sham,Cons,Noise,74,4,1,0.436431699898094,1
9278,123,Larynx,Sham,Cons,Noise,75,3,1,0.40455670002847904,1
9279,123,Larynx,Sham,Cons,Noise,76,2,1,0.302622899995185,1
9280,123,Larynx,Sham,Cons,Noise,77,3,1,0.35417389997746795,1
9281,123,Larynx,Sham,Cons,Noise,78,5,1,0.325272400048561,1
9282,123,Larynx,Sham,Cons,Noise,79,4,1,0.3629865000257271,1
9283,123,Larynx,Sham,Cons,Noise,80,5,1,0.442367800045758,1
9284,123,Larynx,Sham,Cons,Noise,81,2,1,0.441872800001875,1
9285,123,Larynx,Sham,Cons,Noise,82,3,1,0.39453689998481395,1
9286,123,Larynx,Sham,Cons,Noise,83,4,1,0.505915399990045,1
9287,123,Larynx,Sham,Cons,Noise,84,4,1,0.48277600004803395,1
9288,123,Larynx,Sham,Cons,Noise,85,2,0,0.582257900037803,1
9289,123,Larynx,Sham,Cons,Noise,86,2,1,0.35027609998360304,1
9290,123,Larynx,Sham,Cons,Noise,87,3,1,0.60943060007412,1
9291,123,Larynx,Sham,Cons,Noise,88,5,1,0.60268570005428,1
9292,123,Larynx,Sham,Cons,Noise,89,1,0,0.6347506999736651,1
9293,123,Larynx,Sham,Cons,Noise,90,4,1,0.43190590001177004,1
9294,123,Larynx,Sham,Cons,Noise,91,3,1,0.414652499952354,1
9295,123,Larynx,Sham,Cons,Noise,92,1,1,0.602143600001,1
9296,123,Larynx,Sham,Cons,Noise,93,3,1,0.7869265000335871,1
9297,123,Larynx,Sham,Cons,Noise,94,3,1,0.845431299996562,1
9298,123,Larynx,Sham,Cons,Noise,95,1,0,0.743202099925838,1
9299,123,Larynx,Sham,Cons,Noise,96,2,1,0.531340999994427,1
9300,123,Larynx,Sham,Cons,Noise,97,5,1,0.48204110004007794,1
9301,123,Larynx,Sham,Cons,Noise,98,5,1,0.523449799977243,1
9302,123,Larynx,Sham,Cons,Noise,99,4,1,0.73110530001577,1
9303,123,Larynx,Sham,Cons,Noise,100,3,1,0.6646408999804411,1
9304,123,Larynx,Sham,Cons,Noise,101,3,1,0.7229957999661559,1
9305,123,Larynx,Sham,Cons,Noise,102,5,1,1.01946599991061,1
9306,123,Larynx,Sham,Cons,Noise,103,4,1,0.8576716999523342,1
9307,123,Larynx,Sham,Cons,Noise,104,3,1,0.7994716999819499,1
9308,123,Larynx,Sham,Cons,Noise,105,2,1,0.725248400005512,1
9309,123,Larynx,Sham,Cons,Noise,106,4,1,0.6734744999557729,1
9310,123,Larynx,Sham,Cons,Noise,107,1,0,0.662942499970086,1
9311,123,Larynx,Sham,Cons,Noise,108,1,0,0.754995199968107,1
9312,123,Larynx,Sham,Cons,Noise,109,3,1,0.42561040003784,1
9313,123,Larynx,Sham,Cons,Noise,110,2,1,0.9828794000204649,1
9314,123,Larynx,Sham,Cons,Noise,111,1,0,0.863552399910986,1
9315,123,Larynx,Sham,Cons,Noise,112,5,1,0.471702999901026,1
9316,123,Larynx,Sham,Cons,Noise,113,2,1,1.12964820000343,1
9317,123,Larynx,Sham,Cons,Noise,114,4,1,0.761612999951467,1
9318,123,Larynx,Sham,Cons,Noise,115,3,1,0.684766099904664,1
9319,123,Larynx,Sham,Cons,Noise,116,3,1,0.765870500006713,1
9320,123,Larynx,Sham,Cons,Noise,117,2,1,0.686005499912426,1
9321,123,Larynx,Sham,Cons,Noise,118,1,1,1.01722769998014,1
9322,123,Larynx,Sham,Cons,Noise,119,4,1,0.7502017000224441,1
9323,123,Larynx,Sham,Cons,Noise,120,4,1,0.738790499977767,1
9324,123,Larynx,Sham,Cons,Noise,121,2,0,0.633908199961297,1
9325,123,Larynx,Sham,Cons,Noise,122,1,0,0.8302498999983071,1
9326,123,Larynx,Sham,Cons,Noise,123,2,1,0.8122601000359281,1
9327,123,Larynx,Sham,Cons,Noise,124,5,1,0.613886300008744,1
9328,123,Larynx,Sham,Cons,Noise,125,4,1,0.710129700019024,1
9329,123,Larynx,Sham,Cons,Noise,126,2,1,0.738180299988016,1
9330,123,Larynx,Sham,Cons,Noise,127,3,1,0.9897296000272041,1
9331,123,Larynx,Sham,Cons,Noise,128,4,1,0.7469550999812778,1
9332,123,Larynx,Sham,Cons,Noise,129,3,1,0.8822946000145749,1
9333,123,Larynx,Sham,Cons,Noise,130,1,0,0.707439600024372,1
9334,123,Larynx,Sham,Cons,Noise,131,2,1,0.45382350008003397,1
9335,123,Larynx,Sham,Cons,Noise,132,1,1,0.542207199963741,1
9336,123,Larynx,Sham,Cons,Noise,133,3,1,0.5283772000111641,1
9337,123,Larynx,Sham,Cons,Noise,134,4,1,0.568700499949045,1
9338,123,Larynx,Sham,Cons,Noise,135,3,1,0.479161600000225,1
9339,123,Larynx,Sham,Cons,Noise,136,3,1,0.40305359999183604,1
9340,123,Larynx,Sham,Cons,Noise,137,5,1,0.444507699925452,1
9341,123,Larynx,Sham,Cons,Noise,138,2,1,0.430329800001346,1
9342,123,Larynx,Sham,Cons,Noise,139,3,1,0.431562299956568,1
9343,123,Larynx,Sham,Cons,Noise,140,2,1,0.843681700062007,1
9344,123,Larynx,Sham,Cons,Noise,141,5,1,0.604062300059013,1
9345,123,Larynx,Sham,Cons,Noise,142,3,1,0.533647200092673,1
9346,123,Larynx,Sham,Cons,Noise,143,5,1,0.5808708999538791,1
9347,123,Larynx,Sham,Cons,Noise,144,2,1,0.436040200060233,1
9348,123,Larynx,Sham,Cons,Noise,145,3,1,0.43194039992522404,1
9349,123,Larynx,Sham,Cons,Noise,146,1,0,0.630688500008546,1
9350,123,Larynx,Sham,Cons,Noise,147,3,1,0.442166600027122,1
9351,123,Larynx,Sham,Cons,Noise,148,4,1,0.33420449995901397,1
9352,123,Larynx,Sham,Cons,Noise,149,4,1,0.318872899981216,1
9353,123,Larynx,Sham,Cons,Noise,150,2,1,0.346221600077115,1
9354,123,Larynx,Sham,Cons,Noise,151,5,1,0.38558659993577704,1
9355,123,Larynx,Sham,Cons,Noise,152,3,1,0.399228999973275,1
9356,123,Larynx,Sham,Cons,Noise,153,3,1,0.523329699994065,1
9357,123,Larynx,Sham,Cons,Noise,154,5,1,0.6799737999681379,1
9358,123,Larynx,Sham,Cons,Noise,155,4,1,0.44460540008731203,1
9359,123,Larynx,Sham,Cons,Noise,156,1,1,0.45483300008345395,1
9828,139,Larynx,Left iTBS,Cons,Noise,1,2,0,0.7572151000058509,1
9829,139,Larynx,Left iTBS,Cons,Noise,2,5,1,0.8507405999989709,1
9830,139,Larynx,Left iTBS,Cons,Noise,3,3,1,0.933237899997039,1
9831,139,Larynx,Left iTBS,Cons,Noise,4,1,0,0.6398504999961011,1
9832,139,Larynx,Left iTBS,Cons,Noise,5,3,1,0.630898700008402,1
9833,139,Larynx,Left iTBS,Cons,Noise,6,4,0,0.7240716000087559,1
9834,139,Larynx,Left iTBS,Cons,Noise,7,3,1,0.657571999996435,1
9835,139,Larynx,Left iTBS,Cons,Noise,8,5,0,0.647926599995117,1
9836,139,Larynx,Left iTBS,Cons,Noise,9,3,1,0.477064399994561,1
9837,139,Larynx,Left iTBS,Cons,Noise,10,4,0,0.7193151999963451,1
9838,139,Larynx,Left iTBS,Cons,Noise,11,4,0,0.712132700005895,1
9839,139,Larynx,Left iTBS,Cons,Noise,12,4,1,0.569998099992517,1
9840,139,Larynx,Left iTBS,Cons,Noise,13,2,0,0.6904787999956171,1
9841,139,Larynx,Left iTBS,Cons,Noise,14,2,0,0.7549888000066859,1
9842,139,Larynx,Left iTBS,Cons,Noise,15,3,0,0.760473300004378,1
9843,139,Larynx,Left iTBS,Cons,Noise,16,5,1,0.668570400011959,1
9844,139,Larynx,Left iTBS,Cons,Noise,17,1,0,0.649835599993821,1
9845,139,Larynx,Left iTBS,Cons,Noise,18,3,1,0.513604199994006,1
9846,139,Larynx,Left iTBS,Cons,Noise,19,4,0,0.688583399998606,1
9847,139,Larynx,Left iTBS,Cons,Noise,20,4,1,0.7872047999990172,1
9848,139,Larynx,Left iTBS,Cons,Noise,21,1,0,0.5900636000005761,1
9849,139,Larynx,Left iTBS,Cons,Noise,22,3,1,0.9142165999946881,1
9850,139,Larynx,Left iTBS,Cons,Noise,23,3,1,0.7618379000050479,1
9851,139,Larynx,Left iTBS,Cons,Noise,24,2,0,0.508903699999792,1
9852,139,Larynx,Left iTBS,Cons,Noise,25,3,1,1.08735950000118,1
9853,139,Larynx,Left iTBS,Cons,Noise,26,2,0,0.7312897999945559,1
9854,139,Larynx,Left iTBS,Cons,Noise,27,3,0,0.6761440999980551,1
9855,139,Larynx,Left iTBS,Cons,Noise,28,1,0,0.757366000005277,1
9856,139,Larynx,Left iTBS,Cons,Noise,29,3,1,0.785063799994532,1
9857,139,Larynx,Left iTBS,Cons,Noise,30,1,0,0.707127400004538,1
9858,139,Larynx,Left iTBS,Cons,Noise,31,4,1,0.8499662999965949,1
9859,139,Larynx,Left iTBS,Cons,Noise,32,5,0,0.6708264999906529,1
9860,139,Larynx,Left iTBS,Cons,Noise,33,2,1,0.92768619999697,1
9861,139,Larynx,Left iTBS,Cons,Noise,34,2,0,0.6479360999946949,1
9862,139,Larynx,Left iTBS,Cons,Noise,35,4,0,1.00780380000651,1
9863,139,Larynx,Left iTBS,Cons,Noise,36,5,0,1.0418353999994001,1
9864,139,Larynx,Left iTBS,Cons,Noise,37,1,1,0.698046300007263,1
9865,139,Larynx,Left iTBS,Cons,Noise,38,2,0,0.632949099992402,1
9866,139,Larynx,Left iTBS,Cons,Noise,39,5,1,1.1069960000022498,1
9867,139,Larynx,Left iTBS,Cons,Noise,40,3,1,0.9605439000006301,1
9868,139,Larynx,Left iTBS,Cons,Noise,41,1,0,0.626697800005786,1
9869,139,Larynx,Left iTBS,Cons,Noise,42,4,0,0.7435379000089599,1
9870,139,Larynx,Left iTBS,Cons,Noise,43,5,1,0.8827474999998229,1
9871,139,Larynx,Left iTBS,Cons,Noise,44,4,1,1.0254238999914398,1
9872,139,Larynx,Left iTBS,Cons,Noise,45,2,0,0.612101400009124,1
9873,139,Larynx,Left iTBS,Cons,Noise,46,2,0,0.6481575999932829,1
9874,139,Larynx,Left iTBS,Cons,Noise,47,3,1,0.645373399995151,1
9875,139,Larynx,Left iTBS,Cons,Noise,48,3,0,0.601767900006962,1
9876,139,Larynx,Left iTBS,Cons,Noise,49,5,1,0.5157497000036529,1
9877,139,Larynx,Left iTBS,Cons,Noise,50,3,0,0.8655411999934591,1
9878,139,Larynx,Left iTBS,Cons,Noise,51,2,0,0.6681204000051371,1
9879,139,Larynx,Left iTBS,Cons,Noise,52,3,1,0.715910500002792,1
9880,139,Larynx,Left iTBS,Cons,Noise,53,2,0,0.561940199986566,1
9881,139,Larynx,Left iTBS,Cons,Noise,54,4,0,0.553184999997029,1
9882,139,Larynx,Left iTBS,Cons,Noise,55,2,1,0.47128050000174,1
9883,139,Larynx,Left iTBS,Cons,Noise,56,5,0,0.787831000008737,1
9884,139,Larynx,Left iTBS,Cons,Noise,57,3,1,0.6148103000014089,1
9885,139,Larynx,Left iTBS,Cons,Noise,58,1,0,0.59610330000578,1
9886,139,Larynx,Left iTBS,Cons,Noise,59,3,1,0.7237305000016929,1
9887,139,Larynx,Left iTBS,Cons,Noise,60,3,0,0.7056931000115579,1
9888,139,Larynx,Left iTBS,Cons,Noise,61,4,1,0.644017300000996,1
9889,139,Larynx,Left iTBS,Cons,Noise,62,1,0,0.6359384999959731,1
9890,139,Larynx,Left iTBS,Cons,Noise,63,1,0,0.6966254999861121,1
9891,139,Larynx,Left iTBS,Cons,Noise,64,1,1,0.659140800009482,1
9892,139,Larynx,Left iTBS,Cons,Noise,65,1,0,0.7508970999915621,1
9893,139,Larynx,Left iTBS,Cons,Noise,66,5,1,0.6054469999944561,1
9894,139,Larynx,Left iTBS,Cons,Noise,67,3,0,0.654974199991557,1
9895,139,Larynx,Left iTBS,Cons,Noise,68,4,1,0.809630999996443,1
9896,139,Larynx,Left iTBS,Cons,Noise,69,3,0,0.657979900002829,1
9897,139,Larynx,Left iTBS,Cons,Noise,70,5,1,0.723632399996859,1
9898,139,Larynx,Left iTBS,Cons,Noise,71,2,0,0.608105499995872,1
9899,139,Larynx,Left iTBS,Cons,Noise,72,4,0,0.7235291999968471,1
9900,139,Larynx,Left iTBS,Cons,Noise,73,4,1,0.6313078000093809,1
9901,139,Larynx,Left iTBS,Cons,Noise,74,5,1,0.95972850000544,1
9902,139,Larynx,Left iTBS,Cons,Noise,75,2,0,0.605250200009323,1
9903,139,Larynx,Left iTBS,Cons,Noise,76,4,1,0.603354999999283,1
9904,139,Larynx,Left iTBS,Cons,Noise,77,3,0,0.8727791999990592,1
9905,139,Larynx,Left iTBS,Cons,Noise,78,2,1,0.551725400000578,1
9906,139,Larynx,Left iTBS,Cons,Noise,79,3,0,0.638294699994731,1
9907,139,Larynx,Left iTBS,Cons,Noise,80,2,1,0.617804499997874,1
9908,139,Larynx,Left iTBS,Cons,Noise,81,4,1,0.722850799997104,1
9909,139,Larynx,Left iTBS,Cons,Noise,82,5,0,0.582817300004535,1
9910,139,Larynx,Left iTBS,Cons,Noise,83,4,1,1.09517709999636,1
9911,139,Larynx,Left iTBS,Cons,Noise,84,3,0,0.603743600004236,1
9912,139,Larynx,Left iTBS,Cons,Noise,85,1,1,0.599975100005395,1
9913,139,Larynx,Left iTBS,Cons,Noise,86,4,1,0.721977699999115,1
9914,139,Larynx,Left iTBS,Cons,Noise,87,3,0,0.507516999990912,1
9915,139,Larynx,Left iTBS,Cons,Noise,88,3,0,0.515642500002286,1
9916,139,Larynx,Left iTBS,Cons,Noise,89,5,1,0.47625579999294104,1
9917,139,Larynx,Left iTBS,Cons,Noise,90,2,1,0.501727499999106,1
9918,139,Larynx,Left iTBS,Cons,Noise,91,5,0,0.457362999994075,1
9919,139,Larynx,Left iTBS,Cons,Noise,92,4,0,0.476453399998718,1
9920,139,Larynx,Left iTBS,Cons,Noise,93,1,0,0.727816000013263,1
9921,139,Larynx,Left iTBS,Cons,Noise,94,3,1,0.6001606999925571,1
9922,139,Larynx,Left iTBS,Cons,Noise,95,5,1,0.811365100002149,1
9923,139,Larynx,Left iTBS,Cons,Noise,96,5,0,0.534622499995749,1
9924,139,Larynx,Left iTBS,Cons,Noise,97,1,0,0.536878899991279,1
9925,139,Larynx,Left iTBS,Cons,Noise,98,3,1,0.620691800009809,1
9926,139,Larynx,Left iTBS,Cons,Noise,99,1,1,0.6938178999989761,1
9927,139,Larynx,Left iTBS,Cons,Noise,100,2,0,0.495163300001877,1
9928,139,Larynx,Left iTBS,Cons,Noise,101,2,0,0.49502190000203006,1
9929,139,Larynx,Left iTBS,Cons,Noise,102,4,1,0.705234799999744,1
9930,139,Larynx,Left iTBS,Cons,Noise,103,4,1,0.821639899993897,1
9931,139,Larynx,Left iTBS,Cons,Noise,104,3,0,0.9705036999948791,1
9932,139,Larynx,Left iTBS,Cons,Noise,105,2,0,0.6157571999938231,1
9933,139,Larynx,Left iTBS,Cons,Noise,106,3,1,0.553249199991114,1
9934,139,Larynx,Left iTBS,Cons,Noise,107,5,0,0.8411797000007941,1
9935,139,Larynx,Left iTBS,Cons,Noise,108,2,0,0.689077599992743,1
9936,139,Larynx,Left iTBS,Cons,Noise,109,4,1,0.5636207000061401,1
9937,139,Larynx,Left iTBS,Cons,Noise,110,1,1,0.992417600005865,1
9938,139,Larynx,Left iTBS,Cons,Noise,111,3,0,0.718909100003657,1
9939,139,Larynx,Left iTBS,Cons,Noise,112,4,1,1.0878281000041201,1
9940,139,Larynx,Left iTBS,Cons,Noise,113,2,0,0.7045002999948341,1
9941,139,Larynx,Left iTBS,Cons,Noise,114,2,1,0.663967000000412,1
9942,139,Larynx,Left iTBS,Cons,Noise,115,3,0,0.9320295999932571,1
9943,139,Larynx,Left iTBS,Cons,Noise,116,1,1,0.6348422000010029,1
9944,139,Larynx,Left iTBS,Cons,Noise,117,3,1,0.9375499000016129,1
9945,139,Larynx,Left iTBS,Cons,Noise,118,1,0,0.560730099998182,1
9946,139,Larynx,Left iTBS,Cons,Noise,119,1,0,1.00378219998674,1
9947,139,Larynx,Left iTBS,Cons,Noise,120,3,1,0.63201349999872,1
9948,139,Larynx,Left iTBS,Cons,Noise,121,3,0,0.589559300002293,1
9949,139,Larynx,Left iTBS,Cons,Noise,122,4,0,0.690726300003007,1
9950,139,Larynx,Left iTBS,Cons,Noise,123,4,1,0.548906800002442,1
9951,139,Larynx,Left iTBS,Cons,Noise,124,3,1,1.03667499999574,1
9952,139,Larynx,Left iTBS,Cons,Noise,125,1,0,0.554703699992388,1
9953,139,Larynx,Left iTBS,Cons,Noise,126,5,0,0.762591999999131,1
9954,139,Larynx,Left iTBS,Cons,Noise,127,4,1,0.658823000005214,1
9955,139,Larynx,Left iTBS,Cons,Noise,128,4,0,0.662762199994177,1
9956,139,Larynx,Left iTBS,Cons,Noise,129,5,1,0.533820299999206,1
9957,139,Larynx,Left iTBS,Cons,Noise,130,3,0,0.670053199995891,1
9958,139,Larynx,Left iTBS,Cons,Noise,131,4,1,0.592054299995652,1
9959,139,Larynx,Left iTBS,Cons,Noise,132,4,1,0.670810299998266,1
9960,139,Larynx,Left iTBS,Cons,Noise,133,4,0,0.51518919999944,1
9961,139,Larynx,Left iTBS,Cons,Noise,134,1,0,0.693301200008136,1
9962,139,Larynx,Left iTBS,Cons,Noise,135,5,1,0.616428299996187,1
9963,139,Larynx,Left iTBS,Cons,Noise,136,3,0,0.6051582999934909,1
9964,139,Larynx,Left iTBS,Cons,Noise,137,2,0,1.02593469999556,1
9965,139,Larynx,Left iTBS,Cons,Noise,138,1,1,0.6976021000009499,1
9966,139,Larynx,Left iTBS,Cons,Noise,139,3,0,0.6073323000018721,1
9967,139,Larynx,Left iTBS,Cons,Noise,140,1,0,0.74765990000742,1
9968,139,Larynx,Left iTBS,Cons,Noise,141,2,1,0.636982700001681,1
9969,139,Larynx,Left iTBS,Cons,Noise,142,5,0,0.738435000006575,1
9970,139,Larynx,Left iTBS,Cons,Noise,143,3,0,0.856201699993107,1
9971,139,Larynx,Left iTBS,Cons,Noise,144,5,1,0.654288199992152,1
9972,139,Larynx,Left iTBS,Cons,Noise,145,3,1,0.6042067999951539,1
9973,139,Larynx,Left iTBS,Cons,Noise,146,3,0,0.550790399996913,1
9974,139,Larynx,Left iTBS,Cons,Noise,147,3,0,0.610700600009295,1
9975,139,Larynx,Left iTBS,Cons,Noise,148,4,0,0.691985799989197,1
9976,139,Larynx,Left iTBS,Cons,Noise,149,2,0,0.8038538999971929,1
9977,139,Larynx,Left iTBS,Cons,Noise,150,2,1,0.6607855999900489,1
9978,139,Larynx,Left iTBS,Cons,Noise,151,5,0,0.795120099995984,1
9979,139,Larynx,Left iTBS,Cons,Noise,152,2,0,0.8095622999971971,1
9980,139,Larynx,Left iTBS,Cons,Noise,153,2,0,0.8476986999885409,1
9981,139,Larynx,Left iTBS,Cons,Noise,154,2,0,0.855709700001171,1
9982,139,Larynx,Left iTBS,Cons,Noise,155,2,1,1.02867929999775,1
9983,139,Larynx,Left iTBS,Cons,Noise,156,3,1,0.923580999995465,1
12324,139,Larynx,Sham,Cons,Noise,1,3,0,0.9110518000015869,1
12325,139,Larynx,Sham,Cons,Noise,2,3,0,1.04257049999433,1
12326,139,Larynx,Sham,Cons,Noise,3,5,1,0.779261099996802,1
12327,139,Larynx,Sham,Cons,Noise,4,1,0,0.6092513000039621,1
12328,139,Larynx,Sham,Cons,Noise,5,2,0,0.855757600002107,1
12329,139,Larynx,Sham,Cons,Noise,6,3,1,0.6486449000003629,1
12330,139,Larynx,Sham,Cons,Noise,7,2,0,0.659676700001,1
12331,139,Larynx,Sham,Cons,Noise,8,2,0,0.5399001999976459,1
12332,139,Larynx,Sham,Cons,Noise,9,5,0,0.7532875000033531,1
12333,139,Larynx,Sham,Cons,Noise,10,4,1,0.626859800002421,1
12334,139,Larynx,Sham,Cons,Noise,11,5,0,0.675837199996749,1
12335,139,Larynx,Sham,Cons,Noise,12,1,0,0.6801493000020861,1
12336,139,Larynx,Sham,Cons,Noise,13,1,0,0.8345283000016929,1
12337,139,Larynx,Sham,Cons,Noise,14,4,1,0.5742343000019899,1
12338,139,Larynx,Sham,Cons,Noise,15,5,1,1.02788769999461,1
12339,139,Larynx,Sham,Cons,Noise,16,2,0,0.578668499998457,1
12340,139,Larynx,Sham,Cons,Noise,17,4,0,0.527675100005581,1
12341,139,Larynx,Sham,Cons,Noise,18,4,0,0.908719300001394,1
12342,139,Larynx,Sham,Cons,Noise,19,3,1,0.7304697999934431,1
12343,139,Larynx,Sham,Cons,Noise,20,3,1,0.6828562000009699,1
12344,139,Larynx,Sham,Cons,Noise,21,2,0,0.573678699998709,1
12345,139,Larynx,Sham,Cons,Noise,22,1,0,0.44668130000354705,1
12346,139,Larynx,Sham,Cons,Noise,23,4,0,0.8882991999998922,1
12347,139,Larynx,Sham,Cons,Noise,24,3,0,0.730717899998126,1
12348,139,Larynx,Sham,Cons,Noise,25,3,1,0.585226799994416,1
12349,139,Larynx,Sham,Cons,Noise,26,3,1,1.45940210000117,1
12350,139,Larynx,Sham,Cons,Noise,27,1,0,0.497756200005824,1
12351,139,Larynx,Sham,Cons,Noise,28,5,0,0.7697221999987959,1
12352,139,Larynx,Sham,Cons,Noise,29,2,0,0.90937169999961,1
12353,139,Larynx,Sham,Cons,Noise,30,4,1,0.632348399994953,1
12354,139,Larynx,Sham,Cons,Noise,31,2,1,0.47187200000189505,1
12355,139,Larynx,Sham,Cons,Noise,32,3,1,0.891036500004702,1
12356,139,Larynx,Sham,Cons,Noise,33,3,1,1.0831365999984,1
12357,139,Larynx,Sham,Cons,Noise,34,2,0,0.588364100003673,1
12358,139,Larynx,Sham,Cons,Noise,35,4,0,0.654328899996472,1
12359,139,Larynx,Sham,Cons,Noise,36,3,1,0.7239996999996949,1
12360,139,Larynx,Sham,Cons,Noise,37,5,1,0.6555121000055811,1
12361,139,Larynx,Sham,Cons,Noise,38,1,0,0.675410299998475,1
12362,139,Larynx,Sham,Cons,Noise,39,4,1,0.870407200003683,1
12363,139,Larynx,Sham,Cons,Noise,40,5,1,0.8179533000002271,1
12364,139,Larynx,Sham,Cons,Noise,41,3,0,0.655102400000033,1
12365,139,Larynx,Sham,Cons,Noise,42,3,0,0.8080043000009031,1
12366,139,Larynx,Sham,Cons,Noise,43,4,1,0.5772940999959251,1
12367,139,Larynx,Sham,Cons,Noise,44,3,1,0.599535800000012,1
12368,139,Larynx,Sham,Cons,Noise,45,4,1,0.7542733000009321,1
12369,139,Larynx,Sham,Cons,Noise,46,1,0,0.630612900000415,1
12370,139,Larynx,Sham,Cons,Noise,47,3,0,0.7135674000019209,1
12371,139,Larynx,Sham,Cons,Noise,48,2,1,0.743721399994683,1
12372,139,Larynx,Sham,Cons,Noise,49,1,1,0.7021495000008139,1
12373,139,Larynx,Sham,Cons,Noise,50,4,0,0.765455900000234,1
12374,139,Larynx,Sham,Cons,Noise,51,3,1,1.2260877000007901,1
12375,139,Larynx,Sham,Cons,Noise,52,3,1,0.7053495999934971,1
12376,139,Larynx,Sham,Cons,Noise,53,1,0,0.641648199998599,1
12377,139,Larynx,Sham,Cons,Noise,54,5,0,0.5672265999965022,1
12378,139,Larynx,Sham,Cons,Noise,55,2,0,0.9343277000007221,1
12379,139,Larynx,Sham,Cons,Noise,56,1,1,0.6241588000048071,1
12380,139,Larynx,Sham,Cons,Noise,57,4,1,0.7011325999992549,1
12381,139,Larynx,Sham,Cons,Noise,58,4,1,1.29811930000142,1
12382,139,Larynx,Sham,Cons,Noise,59,2,0,0.568011899995327,1
12383,139,Larynx,Sham,Cons,Noise,60,2,1,0.811904999995022,1
12384,139,Larynx,Sham,Cons,Noise,61,4,1,0.7153619000018809,1
12385,139,Larynx,Sham,Cons,Noise,62,3,0,0.509508300005109,1
12386,139,Larynx,Sham,Cons,Noise,63,2,0,0.6045429000005239,1
12387,139,Larynx,Sham,Cons,Noise,64,3,1,0.8372987000038851,1
12388,139,Larynx,Sham,Cons,Noise,65,3,0,0.8875336999990401,1
12389,139,Larynx,Sham,Cons,Noise,66,5,0,0.7510036999956361,1
12390,139,Larynx,Sham,Cons,Noise,67,2,1,0.6332299999994581,1
12391,139,Larynx,Sham,Cons,Noise,68,2,1,1.03559530000348,1
12392,139,Larynx,Sham,Cons,Noise,69,4,1,0.802570799998648,1
12393,139,Larynx,Sham,Cons,Noise,70,5,1,0.76727050000045,1
12394,139,Larynx,Sham,Cons,Noise,71,1,0,0.648172400004114,1
12395,139,Larynx,Sham,Cons,Noise,72,5,0,1.26096499999403,1
12396,139,Larynx,Sham,Cons,Noise,73,1,0,0.800400599997374,1
12397,139,Larynx,Sham,Cons,Noise,74,4,1,0.7542238000023641,1
12398,139,Larynx,Sham,Cons,Noise,75,3,1,0.820479400004842,1
12399,139,Larynx,Sham,Cons,Noise,76,2,0,0.9393037000045301,1
12400,139,Larynx,Sham,Cons,Noise,77,3,1,0.906164699998044,1
12401,139,Larynx,Sham,Cons,Noise,78,5,1,0.8011071000000809,1
12402,139,Larynx,Sham,Cons,Noise,79,4,1,0.752925900000264,1
12403,139,Larynx,Sham,Cons,Noise,80,5,1,0.7635160999998329,1
12404,139,Larynx,Sham,Cons,Noise,81,2,0,0.7194633000035541,1
12405,139,Larynx,Sham,Cons,Noise,82,3,0,0.9147148000047309,1
12406,139,Larynx,Sham,Cons,Noise,83,4,1,0.648968100002094,1
12407,139,Larynx,Sham,Cons,Noise,84,4,1,0.635691200004658,1
12408,139,Larynx,Sham,Cons,Noise,85,2,0,1.0461502000034701,1
12409,139,Larynx,Sham,Cons,Noise,86,2,1,1.01382579999336,1
12410,139,Larynx,Sham,Cons,Noise,87,3,1,0.8546698999998629,1
12411,139,Larynx,Sham,Cons,Noise,88,5,0,0.706338100004359,1
12412,139,Larynx,Sham,Cons,Noise,89,1,0,0.8299078999989431,1
12413,139,Larynx,Sham,Cons,Noise,90,4,0,1.014783300001,1
12414,139,Larynx,Sham,Cons,Noise,91,3,1,0.737499700000626,1
12415,139,Larynx,Sham,Cons,Noise,92,1,1,0.6257874000002629,1
12416,139,Larynx,Sham,Cons,Noise,93,3,1,0.849614100006875,1
12417,139,Larynx,Sham,Cons,Noise,94,3,0,0.723958000002312,1
12418,139,Larynx,Sham,Cons,Noise,95,1,0,0.616128500005289,1
12419,139,Larynx,Sham,Cons,Noise,96,2,1,0.69486259999394,1
12420,139,Larynx,Sham,Cons,Noise,97,5,1,0.9596935999943531,1
12421,139,Larynx,Sham,Cons,Noise,98,5,1,0.672813099998166,1
12422,139,Larynx,Sham,Cons,Noise,99,4,1,1.04374420000386,1
12423,139,Larynx,Sham,Cons,Noise,100,3,1,0.8338328000027099,1
12424,139,Larynx,Sham,Cons,Noise,101,3,1,0.769350599999598,1
12425,139,Larynx,Sham,Cons,Noise,102,5,1,1.0002827999997,1
12426,139,Larynx,Sham,Cons,Noise,103,4,1,0.8449968999993871,1
12427,139,Larynx,Sham,Cons,Noise,104,3,0,0.641594699998677,1
12428,139,Larynx,Sham,Cons,Noise,105,2,0,0.660962599999039,1
12429,139,Larynx,Sham,Cons,Noise,106,4,1,0.734343399999489,1
12430,139,Larynx,Sham,Cons,Noise,107,1,0,0.727097199996933,1
12431,139,Larynx,Sham,Cons,Noise,108,1,0,0.978320800000802,1
12432,139,Larynx,Sham,Cons,Noise,109,3,1,0.7162565000035099,1
12433,139,Larynx,Sham,Cons,Noise,110,2,1,0.666358900001796,1
12434,139,Larynx,Sham,Cons,Noise,111,1,0,0.847150599998713,1
12435,139,Larynx,Sham,Cons,Noise,112,5,1,0.802483699997538,1
12436,139,Larynx,Sham,Cons,Noise,113,2,1,0.707642599998508,1
12437,139,Larynx,Sham,Cons,Noise,114,4,1,0.9263742999974058,1
12438,139,Larynx,Sham,Cons,Noise,115,3,0,0.8901707000040909,1
12439,139,Larynx,Sham,Cons,Noise,116,3,1,0.9212662999998431,1
12440,139,Larynx,Sham,Cons,Noise,117,2,1,0.725737000000663,1
12441,139,Larynx,Sham,Cons,Noise,118,1,1,0.6436586999989229,1
12442,139,Larynx,Sham,Cons,Noise,119,4,1,0.733762699994259,1
12443,139,Larynx,Sham,Cons,Noise,120,4,0,0.7141984999980201,1
12444,139,Larynx,Sham,Cons,Noise,121,2,1,0.630473299999721,1
12445,139,Larynx,Sham,Cons,Noise,122,1,0,0.692942399997264,1
12446,139,Larynx,Sham,Cons,Noise,123,2,0,0.579567900000256,1
12447,139,Larynx,Sham,Cons,Noise,124,5,1,0.5058897000053549,1
12448,139,Larynx,Sham,Cons,Noise,125,4,1,0.500767399993492,1
12449,139,Larynx,Sham,Cons,Noise,126,2,0,0.544521399999212,1
12450,139,Larynx,Sham,Cons,Noise,127,3,0,0.523943599997438,1
12451,139,Larynx,Sham,Cons,Noise,128,4,1,0.444942499998433,1
12452,139,Larynx,Sham,Cons,Noise,129,3,1,0.7312855999989549,1
12453,139,Larynx,Sham,Cons,Noise,130,1,0,0.7040913000018921,1
12454,139,Larynx,Sham,Cons,Noise,131,2,0,0.567244400001073,1
12455,139,Larynx,Sham,Cons,Noise,132,1,1,0.822846399998525,1
12456,139,Larynx,Sham,Cons,Noise,133,3,1,1.05786030000309,1
12457,139,Larynx,Sham,Cons,Noise,134,4,0,0.559263900002406,1
12458,139,Larynx,Sham,Cons,Noise,135,3,1,0.904535599998781,1
12459,139,Larynx,Sham,Cons,Noise,136,3,0,0.765864699998929,1
12460,139,Larynx,Sham,Cons,Noise,137,5,0,0.6970887999996189,1
12461,139,Larynx,Sham,Cons,Noise,138,2,1,0.6784105999977329,1
12462,139,Larynx,Sham,Cons,Noise,139,3,0,0.769005199996172,1
12463,139,Larynx,Sham,Cons,Noise,140,2,1,0.846131300000707,1
12464,139,Larynx,Sham,Cons,Noise,141,5,0,0.558219600003213,1
12465,139,Larynx,Sham,Cons,Noise,142,3,1,0.547192700003507,1
12466,139,Larynx,Sham,Cons,Noise,143,5,1,0.811133700000937,1
12467,139,Larynx,Sham,Cons,Noise,144,2,0,0.529191699999501,1
12468,139,Larynx,Sham,Cons,Noise,145,3,1,0.7933334999979709,1
12469,139,Larynx,Sham,Cons,Noise,146,1,0,0.6581952000051391,1
12470,139,Larynx,Sham,Cons,Noise,147,3,1,0.694754500000272,1
12471,139,Larynx,Sham,Cons,Noise,148,4,1,0.86367899999459,1
12472,139,Larynx,Sham,Cons,Noise,149,4,1,0.9666818999976391,1
12473,139,Larynx,Sham,Cons,Noise,150,2,1,0.8184639000028259,1
12474,139,Larynx,Sham,Cons,Noise,151,5,1,0.963317899993854,1
12475,139,Larynx,Sham,Cons,Noise,152,3,1,0.75918929999898,1
12476,139,Larynx,Sham,Cons,Noise,153,3,1,0.7464274999947521,1
12477,139,Larynx,Sham,Cons,Noise,154,5,0,0.563970700000937,1
12478,139,Larynx,Sham,Cons,Noise,155,4,1,0.8971190000011121,1
12479,139,Larynx,Sham,Cons,Noise,156,1,0,0.79276309999841,1
12948,142,Larynx,Left iTBS,Cons,Noise,1,4,0,0.6491173999966121,1
12949,142,Larynx,Left iTBS,Cons,Noise,2,2,0,0.671075799968094,1
12950,142,Larynx,Left iTBS,Cons,Noise,3,4,0,0.643006499973126,1
12951,142,Larynx,Left iTBS,Cons,Noise,4,1,0,0.574791999999434,1
12952,142,Larynx,Left iTBS,Cons,Noise,5,1,0,0.630821999977343,1
12953,142,Larynx,Left iTBS,Cons,Noise,6,3,0,0.77103000000352,1
12954,142,Larynx,Left iTBS,Cons,Noise,7,2,0,0.9218188999802809,1
12955,142,Larynx,Left iTBS,Cons,Noise,8,2,1,0.5707745000254361,1
12956,142,Larynx,Left iTBS,Cons,Noise,9,2,1,0.455548600002658,1
12957,142,Larynx,Left iTBS,Cons,Noise,10,2,1,0.602520899963565,1
12958,142,Larynx,Left iTBS,Cons,Noise,11,4,1,0.556669900019187,1
12959,142,Larynx,Left iTBS,Cons,Noise,12,2,1,0.54851829999825,1
12960,142,Larynx,Left iTBS,Cons,Noise,13,3,1,0.5894999999436551,1
12961,142,Larynx,Left iTBS,Cons,Noise,14,3,0,0.632913400011603,1
12962,142,Larynx,Left iTBS,Cons,Noise,15,3,1,0.71072540001478,1
12963,142,Larynx,Left iTBS,Cons,Noise,16,1,0,0.562152300029993,1
12964,142,Larynx,Left iTBS,Cons,Noise,17,4,1,0.544522799958941,1
12965,142,Larynx,Left iTBS,Cons,Noise,18,5,1,0.580087700043805,1
12966,142,Larynx,Left iTBS,Cons,Noise,19,4,1,0.553207399963867,1
12967,142,Larynx,Left iTBS,Cons,Noise,20,5,1,0.5617656999966129,1
12968,142,Larynx,Left iTBS,Cons,Noise,21,3,0,0.751403299975209,1
12969,142,Larynx,Left iTBS,Cons,Noise,22,1,0,0.714103000005707,1
12970,142,Larynx,Left iTBS,Cons,Noise,23,3,1,0.47121869999682503,1
12971,142,Larynx,Left iTBS,Cons,Noise,24,1,0,0.503614799992647,1
12972,142,Larynx,Left iTBS,Cons,Noise,25,3,0,0.704772799974307,1
12973,142,Larynx,Left iTBS,Cons,Noise,26,5,1,0.584819000039715,1
12974,142,Larynx,Left iTBS,Cons,Noise,27,5,1,0.728172500035726,1
12975,142,Larynx,Left iTBS,Cons,Noise,28,4,1,0.583434999978635,1
12976,142,Larynx,Left iTBS,Cons,Noise,29,3,1,0.7763401999836791,1
12977,142,Larynx,Left iTBS,Cons,Noise,30,3,0,0.550232200010214,1
12978,142,Larynx,Left iTBS,Cons,Noise,31,2,0,0.713350699981675,1
12979,142,Larynx,Left iTBS,Cons,Noise,32,1,0,0.613855000003241,1
12980,142,Larynx,Left iTBS,Cons,Noise,33,5,1,0.48817009996855604,1
12981,142,Larynx,Left iTBS,Cons,Noise,34,5,1,0.542060900013894,1
12982,142,Larynx,Left iTBS,Cons,Noise,35,4,1,0.47037850000197096,1
12983,142,Larynx,Left iTBS,Cons,Noise,36,3,0,0.6086518000229261,1
12984,142,Larynx,Left iTBS,Cons,Noise,37,3,1,0.7802831999724731,1
12985,142,Larynx,Left iTBS,Cons,Noise,38,4,1,0.586501999991015,1
12986,142,Larynx,Left iTBS,Cons,Noise,39,2,0,0.5165533000254071,1
12987,142,Larynx,Left iTBS,Cons,Noise,40,3,0,0.6027529999846589,1
12988,142,Larynx,Left iTBS,Cons,Noise,41,4,1,0.48968980001518503,1
12989,142,Larynx,Left iTBS,Cons,Noise,42,2,1,0.490769600030035,1
12990,142,Larynx,Left iTBS,Cons,Noise,43,5,1,0.598869699984789,1
12991,142,Larynx,Left iTBS,Cons,Noise,44,2,0,0.474672400043346,1
12992,142,Larynx,Left iTBS,Cons,Noise,45,3,1,0.443297300022095,1
12993,142,Larynx,Left iTBS,Cons,Noise,46,2,0,0.540674999996554,1
12994,142,Larynx,Left iTBS,Cons,Noise,47,5,1,0.4631857000058521,1
12995,142,Larynx,Left iTBS,Cons,Noise,48,1,0,0.60415039997315,1
12996,142,Larynx,Left iTBS,Cons,Noise,49,3,1,0.41558939998503797,1
12997,142,Larynx,Left iTBS,Cons,Noise,50,4,0,0.5493562999763529,1
12998,142,Larynx,Left iTBS,Cons,Noise,51,3,0,0.678513300023042,1
12999,142,Larynx,Left iTBS,Cons,Noise,52,5,1,0.505887100007385,1
13000,142,Larynx,Left iTBS,Cons,Noise,53,4,1,0.7771108999731949,1
13001,142,Larynx,Left iTBS,Cons,Noise,54,4,1,0.650397300021723,1
13002,142,Larynx,Left iTBS,Cons,Noise,55,2,0,0.594611599983182,1
13003,142,Larynx,Left iTBS,Cons,Noise,56,4,1,0.614080799976364,1
13004,142,Larynx,Left iTBS,Cons,Noise,57,3,0,0.533496999996714,1
13005,142,Larynx,Left iTBS,Cons,Noise,58,1,0,0.6191977999988011,1
13006,142,Larynx,Left iTBS,Cons,Noise,59,2,0,0.672604199964553,1
13007,142,Larynx,Left iTBS,Cons,Noise,60,3,1,0.502113399968948,1
13008,142,Larynx,Left iTBS,Cons,Noise,61,5,1,0.59860219998518,1
13009,142,Larynx,Left iTBS,Cons,Noise,62,4,1,0.5737522999988871,1
13010,142,Larynx,Left iTBS,Cons,Noise,63,1,0,0.6042332000215539,1
13011,142,Larynx,Left iTBS,Cons,Noise,64,5,1,0.498868099995889,1
13012,142,Larynx,Left iTBS,Cons,Noise,65,2,1,0.864423199964222,1
13013,142,Larynx,Left iTBS,Cons,Noise,66,3,0,0.573856200033333,1
13014,142,Larynx,Left iTBS,Cons,Noise,67,1,0,0.595613199984655,1
13015,142,Larynx,Left iTBS,Cons,Noise,68,4,1,0.8722360000247141,1
13016,142,Larynx,Left iTBS,Cons,Noise,69,1,0,0.739507100021001,1
13017,142,Larynx,Left iTBS,Cons,Noise,70,1,0,0.6062062000273729,1
13018,142,Larynx,Left iTBS,Cons,Noise,71,3,0,0.793918600014877,1
13019,142,Larynx,Left iTBS,Cons,Noise,72,5,1,0.502275099977851,1
13020,142,Larynx,Left iTBS,Cons,Noise,73,2,1,0.660282299970277,1
13021,142,Larynx,Left iTBS,Cons,Noise,74,4,1,0.731806499999948,1
13022,142,Larynx,Left iTBS,Cons,Noise,75,2,0,0.519744299992453,1
13023,142,Larynx,Left iTBS,Cons,Noise,76,3,1,0.7077292000176391,1
13024,142,Larynx,Left iTBS,Cons,Noise,77,3,0,0.7371418999973679,1
13025,142,Larynx,Left iTBS,Cons,Noise,78,3,1,0.577573299990036,1
13026,142,Larynx,Left iTBS,Cons,Noise,79,2,0,0.644445599988103,1
13027,142,Larynx,Left iTBS,Cons,Noise,80,4,1,0.564745799987577,1
13028,142,Larynx,Left iTBS,Cons,Noise,81,4,0,0.8575448999763471,1
13029,142,Larynx,Left iTBS,Cons,Noise,82,2,0,0.737671099952422,1
13030,142,Larynx,Left iTBS,Cons,Noise,83,3,1,0.6374005000106989,1
13031,142,Larynx,Left iTBS,Cons,Noise,84,3,0,0.8400001000263729,1
13032,142,Larynx,Left iTBS,Cons,Noise,85,1,0,0.614927500020713,1
13033,142,Larynx,Left iTBS,Cons,Noise,86,4,1,0.5474558999994771,1
13034,142,Larynx,Left iTBS,Cons,Noise,87,3,1,0.5758901999797671,1
13035,142,Larynx,Left iTBS,Cons,Noise,88,2,0,0.6139575999695811,1
13036,142,Larynx,Left iTBS,Cons,Noise,89,5,1,0.566695400048047,1
13037,142,Larynx,Left iTBS,Cons,Noise,90,1,0,0.5691159000271,1
13038,142,Larynx,Left iTBS,Cons,Noise,91,5,1,0.39414320001378705,1
13039,142,Larynx,Left iTBS,Cons,Noise,92,4,1,0.612932900025044,1
13040,142,Larynx,Left iTBS,Cons,Noise,93,3,0,0.559943100030068,1
13041,142,Larynx,Left iTBS,Cons,Noise,94,1,1,0.403883300023153,1
13042,142,Larynx,Left iTBS,Cons,Noise,95,5,1,0.660248300002422,1
13043,142,Larynx,Left iTBS,Cons,Noise,96,3,0,0.506209200015292,1
13044,142,Larynx,Left iTBS,Cons,Noise,97,4,1,0.5079529000213371,1
13045,142,Larynx,Left iTBS,Cons,Noise,98,3,0,0.6083915000199339,1
13046,142,Larynx,Left iTBS,Cons,Noise,99,2,0,0.674916499992833,1
13047,142,Larynx,Left iTBS,Cons,Noise,100,3,1,0.446130199998152,1
13048,142,Larynx,Left iTBS,Cons,Noise,101,3,0,0.474581099988427,1
13049,142,Larynx,Left iTBS,Cons,Noise,102,2,1,0.447471900028177,1
13050,142,Larynx,Left iTBS,Cons,Noise,103,5,1,0.574649800022598,1
13051,142,Larynx,Left iTBS,Cons,Noise,104,5,1,0.840974399994593,1
13052,142,Larynx,Left iTBS,Cons,Noise,105,1,0,0.41425229999003904,1
13053,142,Larynx,Left iTBS,Cons,Noise,106,3,1,0.438084799970966,1
13054,142,Larynx,Left iTBS,Cons,Noise,107,4,1,0.6916624000296,1
13055,142,Larynx,Left iTBS,Cons,Noise,108,2,1,0.635491700028069,1
13056,142,Larynx,Left iTBS,Cons,Noise,109,3,0,0.393310200015549,1
13057,142,Larynx,Left iTBS,Cons,Noise,110,3,1,0.391319999995176,1
13058,142,Larynx,Left iTBS,Cons,Noise,111,2,0,0.53095200000098,1
13059,142,Larynx,Left iTBS,Cons,Noise,112,1,0,0.6521606000023891,1
13060,142,Larynx,Left iTBS,Cons,Noise,113,4,1,0.435534200049005,1
13061,142,Larynx,Left iTBS,Cons,Noise,114,5,1,0.732357499946374,1
13062,142,Larynx,Left iTBS,Cons,Noise,115,1,0,0.575214600015897,1
13063,142,Larynx,Left iTBS,Cons,Noise,116,2,0,0.7978510999819259,1
13064,142,Larynx,Left iTBS,Cons,Noise,117,4,1,0.538590099953581,1
13065,142,Larynx,Left iTBS,Cons,Noise,118,3,1,0.8026728999684559,1
13066,142,Larynx,Left iTBS,Cons,Noise,119,4,1,0.6042844000039621,1
13067,142,Larynx,Left iTBS,Cons,Noise,120,2,0,0.604895399999805,1
13068,142,Larynx,Left iTBS,Cons,Noise,121,1,0,0.594396200031042,1
13069,142,Larynx,Left iTBS,Cons,Noise,122,1,0,0.6012019000481811,1
13070,142,Larynx,Left iTBS,Cons,Noise,123,3,1,0.557738500006963,1
13071,142,Larynx,Left iTBS,Cons,Noise,124,3,0,0.5763519000029189,1
13072,142,Larynx,Left iTBS,Cons,Noise,125,5,0,0.705231300031301,1
13073,142,Larynx,Left iTBS,Cons,Noise,126,5,1,0.42342939996160606,1
13074,142,Larynx,Left iTBS,Cons,Noise,127,3,0,0.739467199950013,1
13075,142,Larynx,Left iTBS,Cons,Noise,128,3,1,0.488207199960016,1
13076,142,Larynx,Left iTBS,Cons,Noise,129,3,1,0.9773288000142201,1
13077,142,Larynx,Left iTBS,Cons,Noise,130,4,1,0.614531000028364,1
13078,142,Larynx,Left iTBS,Cons,Noise,131,2,0,0.6316305999644101,1
13079,142,Larynx,Left iTBS,Cons,Noise,132,3,1,0.459607899945695,1
13080,142,Larynx,Left iTBS,Cons,Noise,133,4,1,0.778566499997396,1
13081,142,Larynx,Left iTBS,Cons,Noise,134,5,1,0.6516077999840489,1
13082,142,Larynx,Left iTBS,Cons,Noise,135,4,1,0.6874966000323179,1
13083,142,Larynx,Left iTBS,Cons,Noise,136,5,1,0.559562199981883,1
13084,142,Larynx,Left iTBS,Cons,Noise,137,3,0,0.670937399961986,1
13085,142,Larynx,Left iTBS,Cons,Noise,138,2,0,0.750286200025585,1
13086,142,Larynx,Left iTBS,Cons,Noise,139,3,0,0.8908310999977399,1
13087,142,Larynx,Left iTBS,Cons,Noise,140,4,1,0.573034200002439,1
13088,142,Larynx,Left iTBS,Cons,Noise,141,1,1,0.617023799975868,1
13089,142,Larynx,Left iTBS,Cons,Noise,142,1,0,0.5903957000118679,1
13090,142,Larynx,Left iTBS,Cons,Noise,143,2,0,0.6599833000218499,1
13091,142,Larynx,Left iTBS,Cons,Noise,144,2,0,0.760522199969273,1
13092,142,Larynx,Left iTBS,Cons,Noise,145,5,1,0.49706149997655297,1
13093,142,Larynx,Left iTBS,Cons,Noise,146,4,1,0.520029500010423,1
13094,142,Larynx,Left iTBS,Cons,Noise,147,2,0,0.6411517999949871,1
13095,142,Larynx,Left iTBS,Cons,Noise,148,4,1,0.578632699965965,1
13096,142,Larynx,Left iTBS,Cons,Noise,149,2,0,0.81530279997969,1
13097,142,Larynx,Left iTBS,Cons,Noise,150,3,1,0.4418899000156671,1
13098,142,Larynx,Left iTBS,Cons,Noise,151,1,0,0.641008000005968,1
13099,142,Larynx,Left iTBS,Cons,Noise,152,1,0,0.602342800004408,1
13100,142,Larynx,Left iTBS,Cons,Noise,153,3,0,0.706082799995784,1
13101,142,Larynx,Left iTBS,Cons,Noise,154,4,1,0.60865119996015,1
13102,142,Larynx,Left iTBS,Cons,Noise,155,2,0,0.8183285999693909,1
13103,142,Larynx,Left iTBS,Cons,Noise,156,5,1,0.621913299954031,1
15444,142,Larynx,Sham,Cons,Noise,1,5,0,0.7675883000010799,1
15445,142,Larynx,Sham,Cons,Noise,2,4,1,0.5011402999989509,1
15446,142,Larynx,Sham,Cons,Noise,3,5,1,0.667831200000364,1
15447,142,Larynx,Sham,Cons,Noise,4,1,0,0.49592180000036,1
15448,142,Larynx,Sham,Cons,Noise,5,3,1,0.44532669999898605,1
15449,142,Larynx,Sham,Cons,Noise,6,2,0,0.7316105000027159,1
15450,142,Larynx,Sham,Cons,Noise,7,3,0,0.567479800000001,1
15451,142,Larynx,Sham,Cons,Noise,8,5,1,0.422852300001978,1
15452,142,Larynx,Sham,Cons,Noise,9,2,0,0.565076599999884,1
15453,142,Larynx,Sham,Cons,Noise,10,4,1,0.498351000002003,1
15454,142,Larynx,Sham,Cons,Noise,11,5,0,0.41201309999814795,1
15455,142,Larynx,Sham,Cons,Noise,12,2,1,0.6070550000004,1
15456,142,Larynx,Sham,Cons,Noise,13,2,0,0.46341440000105605,1
15457,142,Larynx,Sham,Cons,Noise,14,4,1,0.7120673999997958,1
15458,142,Larynx,Sham,Cons,Noise,15,1,0,0.5315953999997871,1
15459,142,Larynx,Sham,Cons,Noise,16,3,1,0.429291200001899,1
15460,142,Larynx,Sham,Cons,Noise,17,3,0,0.39525309999953595,1
15461,142,Larynx,Sham,Cons,Noise,18,3,1,0.4484436999991889,1
15462,142,Larynx,Sham,Cons,Noise,19,5,0,0.38086530000146,1
15463,142,Larynx,Sham,Cons,Noise,20,2,0,0.723307899999782,1
15464,142,Larynx,Sham,Cons,Noise,21,1,1,0.4229747999997929,1
15465,142,Larynx,Sham,Cons,Noise,22,2,0,0.762383199999022,1
15466,142,Larynx,Sham,Cons,Noise,23,4,1,0.4795359000017921,1
15467,142,Larynx,Sham,Cons,Noise,24,3,0,0.44628549999833894,1
15468,142,Larynx,Sham,Cons,Noise,25,4,1,0.41286269999909603,1
15469,142,Larynx,Sham,Cons,Noise,26,1,0,0.41101390000039795,1
15470,142,Larynx,Sham,Cons,Noise,27,5,1,0.604574799999682,1
15471,142,Larynx,Sham,Cons,Noise,28,1,0,0.510990399998263,1
15472,142,Larynx,Sham,Cons,Noise,29,2,1,0.474407300000166,1
15473,142,Larynx,Sham,Cons,Noise,30,3,0,0.5092948000019529,1
15474,142,Larynx,Sham,Cons,Noise,31,4,1,0.38940139999977,1
15475,142,Larynx,Sham,Cons,Noise,32,3,1,0.6780894000003169,1
15476,142,Larynx,Sham,Cons,Noise,33,1,0,0.605543300000136,1
15477,142,Larynx,Sham,Cons,Noise,34,4,1,0.495715299999574,1
15478,142,Larynx,Sham,Cons,Noise,35,3,0,0.5925868000013,1
15479,142,Larynx,Sham,Cons,Noise,36,2,0,0.8207346000017421,1
15480,142,Larynx,Sham,Cons,Noise,37,3,1,0.547467000000324,1
15481,142,Larynx,Sham,Cons,Noise,38,4,0,0.65349040000001,1
15482,142,Larynx,Sham,Cons,Noise,39,3,0,0.669330299999274,1
15483,142,Larynx,Sham,Cons,Noise,40,4,1,0.5703226999976321,1
15484,142,Larynx,Sham,Cons,Noise,41,2,0,0.546692100000655,1
15485,142,Larynx,Sham,Cons,Noise,42,2,0,0.5965345000004161,1
15486,142,Larynx,Sham,Cons,Noise,43,3,1,0.683833400002186,1
15487,142,Larynx,Sham,Cons,Noise,44,3,1,0.9000979999982521,1
15488,142,Larynx,Sham,Cons,Noise,45,3,1,0.6567939999986271,1
15489,142,Larynx,Sham,Cons,Noise,46,4,1,0.8740210999967529,1
15490,142,Larynx,Sham,Cons,Noise,47,1,0,0.674292200001219,1
15491,142,Larynx,Sham,Cons,Noise,48,1,0,0.8024724999995669,1
15492,142,Larynx,Sham,Cons,Noise,49,2,0,0.6897734999984101,1
15493,142,Larynx,Sham,Cons,Noise,50,2,0,0.6725574999982199,1
15494,142,Larynx,Sham,Cons,Noise,51,4,1,0.7329621999997471,1
15495,142,Larynx,Sham,Cons,Noise,52,5,1,0.8420087000013149,1
15496,142,Larynx,Sham,Cons,Noise,53,5,1,0.756641600000876,1
15497,142,Larynx,Sham,Cons,Noise,54,3,0,0.7447676000010691,1
15498,142,Larynx,Sham,Cons,Noise,55,2,0,0.928237800002535,1
15499,142,Larynx,Sham,Cons,Noise,56,4,1,0.547371399999975,1
15500,142,Larynx,Sham,Cons,Noise,57,1,0,0.8572343999985609,1
15501,142,Larynx,Sham,Cons,Noise,58,1,0,0.657551500000409,1
15502,142,Larynx,Sham,Cons,Noise,59,3,1,0.694905600001221,1
15503,142,Larynx,Sham,Cons,Noise,60,3,0,0.600215400001616,1
15504,142,Larynx,Sham,Cons,Noise,61,2,0,0.752581000000646,1
15505,142,Larynx,Sham,Cons,Noise,62,5,1,0.680973099999392,1
15506,142,Larynx,Sham,Cons,Noise,63,4,0,0.741893999998865,1
15507,142,Larynx,Sham,Cons,Noise,64,5,1,0.647873499998241,1
15508,142,Larynx,Sham,Cons,Noise,65,3,1,0.7577479999999921,1
15509,142,Larynx,Sham,Cons,Noise,66,4,1,0.687604099999589,1
15510,142,Larynx,Sham,Cons,Noise,67,3,1,0.7994092000008101,1
15511,142,Larynx,Sham,Cons,Noise,68,1,0,0.504560100001981,1
15512,142,Larynx,Sham,Cons,Noise,69,5,1,0.657384599999205,1
15513,142,Larynx,Sham,Cons,Noise,70,1,0,0.9748327999986941,1
15514,142,Larynx,Sham,Cons,Noise,71,3,0,0.7352127999984079,1
15515,142,Larynx,Sham,Cons,Noise,72,5,1,0.736258299999463,1
15516,142,Larynx,Sham,Cons,Noise,73,3,0,0.707987799996772,1
15517,142,Larynx,Sham,Cons,Noise,74,3,1,0.613466100003279,1
15518,142,Larynx,Sham,Cons,Noise,75,2,0,0.833362599998509,1
15519,142,Larynx,Sham,Cons,Noise,76,4,1,0.844083699998009,1
15520,142,Larynx,Sham,Cons,Noise,77,2,1,0.8293058000017479,1
15521,142,Larynx,Sham,Cons,Noise,78,4,1,0.71311059999789,1
15522,142,Larynx,Sham,Cons,Noise,79,2,0,0.8967322999997122,1
15523,142,Larynx,Sham,Cons,Noise,80,3,1,0.6115954000015339,1
15524,142,Larynx,Sham,Cons,Noise,81,5,1,0.7282545999987629,1
15525,142,Larynx,Sham,Cons,Noise,82,4,1,0.698184299999411,1
15526,142,Larynx,Sham,Cons,Noise,83,1,0,0.664095500000258,1
15527,142,Larynx,Sham,Cons,Noise,84,2,1,0.658355600000505,1
15528,142,Larynx,Sham,Cons,Noise,85,5,1,0.734724400001141,1
15529,142,Larynx,Sham,Cons,Noise,86,1,0,0.7284523999987871,1
15530,142,Larynx,Sham,Cons,Noise,87,3,1,0.6321434999990739,1
15531,142,Larynx,Sham,Cons,Noise,88,1,0,0.774404000003415,1
15532,142,Larynx,Sham,Cons,Noise,89,3,0,0.8122800999990429,1
15533,142,Larynx,Sham,Cons,Noise,90,1,0,0.633385900000576,1
15534,142,Larynx,Sham,Cons,Noise,91,4,1,0.6245066999981651,1
15535,142,Larynx,Sham,Cons,Noise,92,5,1,0.6531709000009871,1
15536,142,Larynx,Sham,Cons,Noise,93,4,1,0.678112800000235,1
15537,142,Larynx,Sham,Cons,Noise,94,4,1,0.909543800000392,1
15538,142,Larynx,Sham,Cons,Noise,95,5,1,0.8260626000010229,1
15539,142,Larynx,Sham,Cons,Noise,96,2,0,0.646183599998039,1
15540,142,Larynx,Sham,Cons,Noise,97,2,1,0.7944453999989491,1
15541,142,Larynx,Sham,Cons,Noise,98,5,1,0.9437459000000671,1
15542,142,Larynx,Sham,Cons,Noise,99,3,1,0.653730999998515,1
15543,142,Larynx,Sham,Cons,Noise,100,3,1,0.9755485000023331,1
15544,142,Larynx,Sham,Cons,Noise,101,4,1,0.6750428000013929,1
15545,142,Larynx,Sham,Cons,Noise,102,2,0,0.638468900000589,1
15546,142,Larynx,Sham,Cons,Noise,103,2,0,0.624313699998311,1
15547,142,Larynx,Sham,Cons,Noise,104,1,0,0.6990216000012879,1
15548,142,Larynx,Sham,Cons,Noise,105,4,1,0.636636700000963,1
15549,142,Larynx,Sham,Cons,Noise,106,3,1,0.639819399999396,1
15550,142,Larynx,Sham,Cons,Noise,107,3,1,0.6053657999982529,1
15551,142,Larynx,Sham,Cons,Noise,108,3,1,0.6438454000017371,1
15552,142,Larynx,Sham,Cons,Noise,109,4,1,0.616952700002003,1
15553,142,Larynx,Sham,Cons,Noise,110,5,1,0.6544766999977579,1
15554,142,Larynx,Sham,Cons,Noise,111,2,1,0.70037560000128,1
15555,142,Larynx,Sham,Cons,Noise,112,2,0,0.46981550000055,1
15556,142,Larynx,Sham,Cons,Noise,113,3,1,0.620441899998696,1
15557,142,Larynx,Sham,Cons,Noise,114,3,0,0.54395089999889,1
15558,142,Larynx,Sham,Cons,Noise,115,3,1,0.49395139999978704,1
15559,142,Larynx,Sham,Cons,Noise,116,1,0,0.48032519999833295,1
15560,142,Larynx,Sham,Cons,Noise,117,4,1,0.445904799998971,1
15561,142,Larynx,Sham,Cons,Noise,118,2,0,0.394790600003034,1
15562,142,Larynx,Sham,Cons,Noise,119,4,1,0.6186481000004279,1
15563,142,Larynx,Sham,Cons,Noise,120,2,0,0.5722534999986241,1
15564,142,Larynx,Sham,Cons,Noise,121,3,1,0.7195009000024579,1
15565,142,Larynx,Sham,Cons,Noise,122,2,0,0.37894779999987793,1
15566,142,Larynx,Sham,Cons,Noise,123,5,1,0.624508600001718,1
15567,142,Larynx,Sham,Cons,Noise,124,3,1,0.8833770000019291,1
15568,142,Larynx,Sham,Cons,Noise,125,5,1,0.8547828000009761,1
15569,142,Larynx,Sham,Cons,Noise,126,4,1,0.5823392999991479,1
15570,142,Larynx,Sham,Cons,Noise,127,4,1,0.612279599998146,1
15571,142,Larynx,Sham,Cons,Noise,128,1,0,0.6860588999988979,1
15572,142,Larynx,Sham,Cons,Noise,129,3,1,0.753808400000707,1
15573,142,Larynx,Sham,Cons,Noise,130,5,0,0.42110719999982393,1
15574,142,Larynx,Sham,Cons,Noise,131,4,1,0.9033810000000809,1
15575,142,Larynx,Sham,Cons,Noise,132,2,0,1.1545927000006497,1
15576,142,Larynx,Sham,Cons,Noise,133,3,1,0.682365799999388,1
15577,142,Larynx,Sham,Cons,Noise,134,2,0,0.735612300002686,1
15578,142,Larynx,Sham,Cons,Noise,135,5,1,0.7487062000000151,1
15579,142,Larynx,Sham,Cons,Noise,136,3,0,1.04528209999989,1
15580,142,Larynx,Sham,Cons,Noise,137,3,1,0.6054064999989351,1
15581,142,Larynx,Sham,Cons,Noise,138,2,0,0.73500299999796,1
15582,142,Larynx,Sham,Cons,Noise,139,1,0,0.8431302999997571,1
15583,142,Larynx,Sham,Cons,Noise,140,4,1,0.5556201999970649,1
15584,142,Larynx,Sham,Cons,Noise,141,1,1,1.05815710000024,1
15585,142,Larynx,Sham,Cons,Noise,142,3,0,0.742039299999306,1
15586,142,Larynx,Sham,Cons,Noise,143,4,1,0.695381099998485,1
15587,142,Larynx,Sham,Cons,Noise,144,4,1,0.8540538999986892,1
15588,142,Larynx,Sham,Cons,Noise,145,1,1,0.6954746999981579,1
15589,142,Larynx,Sham,Cons,Noise,146,2,0,0.82590429999982,1
15590,142,Larynx,Sham,Cons,Noise,147,3,0,0.7611985000003191,1
15591,142,Larynx,Sham,Cons,Noise,148,5,1,0.612771899999643,1
15592,142,Larynx,Sham,Cons,Noise,149,4,1,0.7279385999972869,1
15593,142,Larynx,Sham,Cons,Noise,150,5,1,0.64741629999844,1
15594,142,Larynx,Sham,Cons,Noise,151,3,0,0.6094019999982271,1
15595,142,Larynx,Sham,Cons,Noise,152,2,0,0.79682590000084,1
15596,142,Larynx,Sham,Cons,Noise,153,3,1,0.5204978000001571,1
15597,142,Larynx,Sham,Cons,Noise,154,3,1,0.742331700002978,1
15598,142,Larynx,Sham,Cons,Noise,155,1,0,0.5865603999991441,1
15599,142,Larynx,Sham,Cons,Noise,156,1,0,0.926279199997225,1
16068,201,Larynx,Left iTBS,Cons,Noise,1,3,1,1.6041640999610502,1
16069,201,Larynx,Left iTBS,Cons,Noise,2,1,0,0.5772640000213871,1
16070,201,Larynx,Left iTBS,Cons,Noise,3,3,0,0.584403699962422,1
16071,201,Larynx,Left iTBS,Cons,Noise,4,5,0,0.7665998000302351,1
16072,201,Larynx,Left iTBS,Cons,Noise,5,2,0,0.618934400030412,1
16073,201,Larynx,Left iTBS,Cons,Noise,6,1,0,0.607646699994802,1
16074,201,Larynx,Left iTBS,Cons,Noise,7,5,0,0.73988810001174,1
16075,201,Larynx,Left iTBS,Cons,Noise,8,1,0,0.6002600999781861,1
16076,201,Larynx,Left iTBS,Cons,Noise,9,1,0,0.583527000038885,1
16077,201,Larynx,Left iTBS,Cons,Noise,10,3,1,0.6446473000105469,1
16078,201,Larynx,Left iTBS,Cons,Noise,11,1,0,0.9573504000436509,1
16079,201,Larynx,Left iTBS,Cons,Noise,12,2,0,0.5743320999899879,1
16080,201,Larynx,Left iTBS,Cons,Noise,13,2,0,0.528352299996186,1
16081,201,Larynx,Left iTBS,Cons,Noise,14,3,0,0.602496699953917,1
16082,201,Larynx,Left iTBS,Cons,Noise,15,5,0,0.632962499978021,1
16083,201,Larynx,Left iTBS,Cons,Noise,16,3,0,0.58840530004818,1
16084,201,Larynx,Left iTBS,Cons,Noise,17,3,0,0.516826700011734,1
16085,201,Larynx,Left iTBS,Cons,Noise,18,4,1,0.676019600010477,1
16086,201,Larynx,Left iTBS,Cons,Noise,19,3,1,0.5767215000232679,1
16087,201,Larynx,Left iTBS,Cons,Noise,20,4,1,0.558560600038618,1
16088,201,Larynx,Left iTBS,Cons,Noise,21,2,0,0.5796746999840251,1
16089,201,Larynx,Left iTBS,Cons,Noise,22,5,1,1.14223140000831,1
16090,201,Larynx,Left iTBS,Cons,Noise,23,2,0,0.640833499957807,1
16091,201,Larynx,Left iTBS,Cons,Noise,24,5,0,0.573458599974401,1
16092,201,Larynx,Left iTBS,Cons,Noise,25,5,0,0.6571087999618609,1
16093,201,Larynx,Left iTBS,Cons,Noise,26,4,0,0.60765189997619,1
16094,201,Larynx,Left iTBS,Cons,Noise,27,4,0,0.620683200017083,1
16095,201,Larynx,Left iTBS,Cons,Noise,28,3,0,0.49934330000542104,1
16096,201,Larynx,Left iTBS,Cons,Noise,29,4,0,0.629366000008304,1
16097,201,Larynx,Left iTBS,Cons,Noise,30,2,0,0.679409499978647,1
16098,201,Larynx,Left iTBS,Cons,Noise,31,3,0,0.493646800052375,1
16099,201,Larynx,Left iTBS,Cons,Noise,32,4,0,0.5694993999786679,1
16100,201,Larynx,Left iTBS,Cons,Noise,33,4,0,0.49651180004002504,1
16101,201,Larynx,Left iTBS,Cons,Noise,34,4,0,0.7284701999742541,1
16102,201,Larynx,Left iTBS,Cons,Noise,35,3,0,0.7841661999700591,1
16103,201,Larynx,Left iTBS,Cons,Noise,36,2,0,0.773514400003478,1
16104,201,Larynx,Left iTBS,Cons,Noise,37,2,0,0.653243599983398,1
16105,201,Larynx,Left iTBS,Cons,Noise,38,3,0,0.6610247000353411,1
16106,201,Larynx,Left iTBS,Cons,Noise,39,1,0,0.630936999979895,1
16107,201,Larynx,Left iTBS,Cons,Noise,40,2,0,0.6340069000143559,1
16108,201,Larynx,Left iTBS,Cons,Noise,41,3,0,0.7394247999764051,1
16109,201,Larynx,Left iTBS,Cons,Noise,42,1,0,0.67715770000359,1
16110,201,Larynx,Left iTBS,Cons,Noise,43,4,0,0.735380900034215,1
16111,201,Larynx,Left iTBS,Cons,Noise,44,3,0,0.738118699984625,1
