,subj_idx,group_idx,turn_type,task_type,snr_type,trial_num,step_att,response,rt,step_unatnd
780,55,Larynx,Left cTBS,Cons,Clear,1,4,1,0.681244200008223,1
781,55,Larynx,Left cTBS,Cons,Clear,2,2,0,0.438170199980959,1
782,55,Larynx,Left cTBS,Cons,Clear,3,1,1,0.386652500019409,1
783,55,Larynx,Left cTBS,Cons,Clear,4,5,1,0.42003040001145603,1
784,55,Larynx,Left cTBS,Cons,Clear,5,1,0,0.571299200004432,1
785,55,Larynx,Left cTBS,Cons,Clear,6,5,1,0.37344959998154104,1
786,55,Larynx,Left cTBS,Cons,Clear,7,2,1,0.462528299976839,1
787,55,Larynx,Left cTBS,Cons,Clear,8,3,1,0.4920495000260421,1
788,55,Larynx,Left cTBS,Cons,Clear,9,4,1,0.504294300015317,1
789,55,Larynx,Left cTBS,Cons,Clear,10,4,1,0.471557499986375,1
790,55,Larynx,Left cTBS,Cons,Clear,11,3,1,0.9354072000132869,1
791,55,Larynx,Left cTBS,Cons,Clear,12,1,0,0.578617999999551,1
792,55,Larynx,Left cTBS,Cons,Clear,13,2,1,0.56204119999893,1
793,55,Larynx,Left cTBS,Cons,Clear,14,1,0,0.553085899999132,1
794,55,Larynx,Left cTBS,Cons,Clear,15,4,1,0.351942799985409,1
795,55,Larynx,Left cTBS,Cons,Clear,16,3,1,0.714067199995043,1
796,55,Larynx,Left cTBS,Cons,Clear,17,3,1,0.5398372000199739,1
797,55,Larynx,Left cTBS,Cons,Clear,18,3,1,0.6474311999918431,1
798,55,Larynx,Left cTBS,Cons,Clear,19,1,0,0.48303610002039904,1
799,55,Larynx,Left cTBS,Cons,Clear,20,1,0,0.579702899995027,1
800,55,Larynx,Left cTBS,Cons,Clear,21,2,1,0.439758400025312,1
801,55,Larynx,Left cTBS,Cons,Clear,22,2,1,0.7292725000006609,1
802,55,Larynx,Left cTBS,Cons,Clear,23,3,1,0.608182700001635,1
803,55,Larynx,Left cTBS,Cons,Clear,24,4,1,0.709676600003149,1
804,55,Larynx,Left cTBS,Cons,Clear,25,5,1,0.548747299995739,1
805,55,Larynx,Left cTBS,Cons,Clear,26,5,1,0.00047139998059719806,1
806,55,Larynx,Left cTBS,Cons,Clear,27,2,1,2.35273749998305,1
807,55,Larynx,Left cTBS,Cons,Clear,28,3,1,0.7545686999801551,1
808,55,Larynx,Left cTBS,Cons,Clear,29,2,0,0.728550500003621,1
809,55,Larynx,Left cTBS,Cons,Clear,30,3,1,0.56114120001439,1
810,55,Larynx,Left cTBS,Cons,Clear,31,2,0,0.635304199997336,1
811,55,Larynx,Left cTBS,Cons,Clear,32,3,1,0.432991399982711,1
812,55,Larynx,Left cTBS,Cons,Clear,33,3,1,1.2242084999743401,1
813,55,Larynx,Left cTBS,Cons,Clear,34,4,1,0.51315500002238,1
814,55,Larynx,Left cTBS,Cons,Clear,35,5,1,0.633826199977193,1
815,55,Larynx,Left cTBS,Cons,Clear,36,5,1,0.556184699991718,1
816,55,Larynx,Left cTBS,Cons,Clear,37,4,1,0.606878899998264,1
817,55,Larynx,Left cTBS,Cons,Clear,38,3,1,0.6051730999897701,1
818,55,Larynx,Left cTBS,Cons,Clear,39,4,1,0.5656604999967391,1
819,55,Larynx,Left cTBS,Cons,Clear,40,1,0,0.546819100010907,1
820,55,Larynx,Left cTBS,Cons,Clear,41,1,0,0.73914779999177,1
821,55,Larynx,Left cTBS,Cons,Clear,42,3,1,0.620229699998163,1
822,55,Larynx,Left cTBS,Cons,Clear,43,2,1,0.870508599997265,1
823,55,Larynx,Left cTBS,Cons,Clear,44,4,1,0.8208880999882241,1
824,55,Larynx,Left cTBS,Cons,Clear,45,3,1,0.862316500017187,1
825,55,Larynx,Left cTBS,Cons,Clear,46,2,1,1.35270419999142,1
826,55,Larynx,Left cTBS,Cons,Clear,47,3,1,0.638282799976878,1
827,55,Larynx,Left cTBS,Cons,Clear,48,4,1,1.62584130000323,1
828,55,Larynx,Left cTBS,Cons,Clear,49,3,1,0.6010181999881751,1
829,55,Larynx,Left cTBS,Cons,Clear,50,5,1,0.940392799995607,1
830,55,Larynx,Left cTBS,Cons,Clear,51,4,1,0.570211000012932,1
831,55,Larynx,Left cTBS,Cons,Clear,52,1,0,0.550720300001558,1
832,55,Larynx,Left cTBS,Cons,Clear,53,5,1,1.55664110000362,1
833,55,Larynx,Left cTBS,Cons,Clear,54,4,1,0.620421600004192,1
834,55,Larynx,Left cTBS,Cons,Clear,55,5,1,0.713842800003476,1
835,55,Larynx,Left cTBS,Cons,Clear,56,3,1,0.566230299999006,1
836,55,Larynx,Left cTBS,Cons,Clear,57,5,1,1.26043950000894,1
837,55,Larynx,Left cTBS,Cons,Clear,58,2,0,0.613954599975841,1
838,55,Larynx,Left cTBS,Cons,Clear,59,3,1,1.09147250000387,1
839,55,Larynx,Left cTBS,Cons,Clear,60,3,1,1.40900089999195,1
840,55,Larynx,Left cTBS,Cons,Clear,61,4,1,0.591949800000293,1
841,55,Larynx,Left cTBS,Cons,Clear,62,2,1,1.13459609998972,1
842,55,Larynx,Left cTBS,Cons,Clear,63,2,0,1.08029529999476,1
843,55,Larynx,Left cTBS,Cons,Clear,64,4,1,0.6019322000211099,1
844,55,Larynx,Left cTBS,Cons,Clear,65,4,1,0.524752299999818,1
845,55,Larynx,Left cTBS,Cons,Clear,66,4,1,0.722407499997644,1
846,55,Larynx,Left cTBS,Cons,Clear,67,2,0,0.5710268999973779,1
847,55,Larynx,Left cTBS,Cons,Clear,68,5,1,0.8030234999896491,1
848,55,Larynx,Left cTBS,Cons,Clear,69,3,1,0.5946270000131341,1
849,55,Larynx,Left cTBS,Cons,Clear,70,3,0,0.7023808000085411,1
850,55,Larynx,Left cTBS,Cons,Clear,71,3,1,1.1411960000114099,1
851,55,Larynx,Left cTBS,Cons,Clear,72,1,1,1.23390039999504,1
852,55,Larynx,Left cTBS,Cons,Clear,73,1,0,0.595842400012771,1
853,55,Larynx,Left cTBS,Cons,Clear,74,1,0,0.523137799988035,1
854,55,Larynx,Left cTBS,Cons,Clear,75,3,1,0.840237700002035,1
855,55,Larynx,Left cTBS,Cons,Clear,76,2,1,0.726310099998955,1
856,55,Larynx,Left cTBS,Cons,Clear,77,2,1,0.588577199989231,1
857,55,Larynx,Left cTBS,Cons,Clear,78,5,1,0.569932499987772,1
858,55,Larynx,Left cTBS,Cons,Clear,79,4,1,0.000991400011116639,1
859,55,Larynx,Left cTBS,Cons,Clear,80,5,1,1.5910739999963,1
860,55,Larynx,Left cTBS,Cons,Clear,81,3,1,1.3718986999883798,1
861,55,Larynx,Left cTBS,Cons,Clear,82,4,1,0.5780941999983039,1
862,55,Larynx,Left cTBS,Cons,Clear,83,1,0,0.549715900007868,1
863,55,Larynx,Left cTBS,Cons,Clear,84,3,1,0.795971099985763,1
864,55,Larynx,Left cTBS,Cons,Clear,85,5,1,0.595219900016673,1
865,55,Larynx,Left cTBS,Cons,Clear,86,3,1,0.577953400003025,1
866,55,Larynx,Left cTBS,Cons,Clear,87,3,0,0.6745076999941378,1
867,55,Larynx,Left cTBS,Cons,Clear,88,2,1,1.33340179998777,1
868,55,Larynx,Left cTBS,Cons,Clear,89,2,1,0.8797154999920171,1
869,55,Larynx,Left cTBS,Cons,Clear,90,4,1,0.67033750002156,1
870,55,Larynx,Left cTBS,Cons,Clear,91,5,1,0.965152999997372,1
871,55,Larynx,Left cTBS,Cons,Clear,92,4,1,0.641218699980527,1
872,55,Larynx,Left cTBS,Cons,Clear,93,4,1,1.45946449998883,1
873,55,Larynx,Left cTBS,Cons,Clear,94,3,1,0.614433400012786,1
874,55,Larynx,Left cTBS,Cons,Clear,95,4,1,0.5052307999867479,1
875,55,Larynx,Left cTBS,Cons,Clear,96,3,1,0.4595067999907771,1
876,55,Larynx,Left cTBS,Cons,Clear,97,5,1,0.551174099993659,1
877,55,Larynx,Left cTBS,Cons,Clear,98,3,1,0.49907610000809705,1
878,55,Larynx,Left cTBS,Cons,Clear,99,2,1,0.9554867999977429,1
879,55,Larynx,Left cTBS,Cons,Clear,100,2,1,0.5795433999737719,1
880,55,Larynx,Left cTBS,Cons,Clear,101,1,0,0.6460393000161279,1
881,55,Larynx,Left cTBS,Cons,Clear,102,2,0,0.710187299991958,1
882,55,Larynx,Left cTBS,Cons,Clear,103,4,1,0.6341335000179239,1
883,55,Larynx,Left cTBS,Cons,Clear,104,2,1,1.03993410000112,1
884,55,Larynx,Left cTBS,Cons,Clear,105,3,0,1.1392969000153201,1
885,55,Larynx,Left cTBS,Cons,Clear,106,5,1,0.630377499997849,1
886,55,Larynx,Left cTBS,Cons,Clear,107,1,0,0.562553600000683,1
887,55,Larynx,Left cTBS,Cons,Clear,108,3,1,0.726680899999337,1
888,55,Larynx,Left cTBS,Cons,Clear,109,1,0,0.535057200002484,1
889,55,Larynx,Left cTBS,Cons,Clear,110,5,1,0.5828019000182391,1
890,55,Larynx,Left cTBS,Cons,Clear,111,1,0,1.5208437000110302,1
891,55,Larynx,Left cTBS,Cons,Clear,112,2,1,0.794982599996729,1
892,55,Larynx,Left cTBS,Cons,Clear,113,1,0,2.09681869999622,1
893,55,Larynx,Left cTBS,Cons,Clear,114,3,1,0.842790100025013,1
894,55,Larynx,Left cTBS,Cons,Clear,115,3,1,0.604845099995146,1
895,55,Larynx,Left cTBS,Cons,Clear,116,2,1,2.41521390000707,1
896,55,Larynx,Left cTBS,Cons,Clear,117,4,1,0.584401200001594,1
897,55,Larynx,Left cTBS,Cons,Clear,118,3,1,1.13670109998202,1
898,55,Larynx,Left cTBS,Cons,Clear,119,2,1,1.1672208000090902,1
899,55,Larynx,Left cTBS,Cons,Clear,120,4,1,0.586912299972028,1
900,55,Larynx,Left cTBS,Cons,Clear,121,3,1,0.514688399998704,1
901,55,Larynx,Left cTBS,Cons,Clear,122,2,1,0.59674769997946,1
902,55,Larynx,Left cTBS,Cons,Clear,123,4,0,0.8530572000017859,1
903,55,Larynx,Left cTBS,Cons,Clear,124,4,1,0.7770769000053409,1
904,55,Larynx,Left cTBS,Cons,Clear,125,4,1,0.6106339000107249,1
905,55,Larynx,Left cTBS,Cons,Clear,126,1,1,0.000319400016451254,1
906,55,Larynx,Left cTBS,Cons,Clear,127,3,1,0.000278000021353364,1
907,55,Larynx,Left cTBS,Cons,Clear,128,2,1,0.000265700015006587,1
908,55,Larynx,Left cTBS,Cons,Clear,129,3,1,1.2383285999822,1
909,55,Larynx,Left cTBS,Cons,Clear,130,1,0,0.528852499992354,1
910,55,Larynx,Left cTBS,Cons,Clear,131,5,1,0.47526539998943895,1
911,55,Larynx,Left cTBS,Cons,Clear,132,3,1,0.46345779998228004,1
912,55,Larynx,Left cTBS,Cons,Clear,133,5,1,0.47517709998646795,1
913,55,Larynx,Left cTBS,Cons,Clear,134,5,1,0.49857990001328295,1
914,55,Larynx,Left cTBS,Cons,Clear,135,3,1,0.510546499979682,1
915,55,Larynx,Left cTBS,Cons,Clear,136,2,0,0.5127393000002479,1
916,55,Larynx,Left cTBS,Cons,Clear,137,4,1,0.4172564000182321,1
917,55,Larynx,Left cTBS,Cons,Clear,138,1,0,0.465649099991424,1
918,55,Larynx,Left cTBS,Cons,Clear,139,4,1,0.386521200009156,1
919,55,Larynx,Left cTBS,Cons,Clear,140,5,1,0.46541159998741904,1
920,55,Larynx,Left cTBS,Cons,Clear,141,3,1,0.43021650001173795,1
921,55,Larynx,Left cTBS,Cons,Clear,142,3,0,1.0977619999903299,1
922,55,Larynx,Left cTBS,Cons,Clear,143,3,1,0.613148199976422,1
923,55,Larynx,Left cTBS,Cons,Clear,144,4,1,0.4838110000127929,1
924,55,Larynx,Left cTBS,Cons,Clear,145,2,0,0.585639600001741,1
925,55,Larynx,Left cTBS,Cons,Clear,146,1,0,0.6064687999896711,1
926,55,Larynx,Left cTBS,Cons,Clear,147,2,1,0.624603800009936,1
927,55,Larynx,Left cTBS,Cons,Clear,148,5,1,0.5016951000143309,1
928,55,Larynx,Left cTBS,Cons,Clear,149,1,0,0.575194999983069,1
929,55,Larynx,Left cTBS,Cons,Clear,150,2,0,0.7834386000176891,1
930,55,Larynx,Left cTBS,Cons,Clear,151,3,1,0.48242529999697603,1
931,55,Larynx,Left cTBS,Cons,Clear,152,1,0,0.6163557000108989,1
932,55,Larynx,Left cTBS,Cons,Clear,153,2,1,0.544515400019009,1
933,55,Larynx,Left cTBS,Cons,Clear,154,3,1,0.488812499999767,1
934,55,Larynx,Left cTBS,Cons,Clear,155,5,1,0.527321500005201,1
935,55,Larynx,Left cTBS,Cons,Clear,156,4,1,0.501087100012228,1
2652,55,Larynx,Sham,Cons,Clear,1,4,1,0.934042100096121,1
2653,55,Larynx,Sham,Cons,Clear,2,3,0,0.710423299926333,1
2654,55,Larynx,Sham,Cons,Clear,3,4,1,0.705889699980617,1
2655,55,Larynx,Sham,Cons,Clear,4,5,1,0.540295299957506,1
2656,55,Larynx,Sham,Cons,Clear,5,2,0,0.9196360999485479,1
2657,55,Larynx,Sham,Cons,Clear,6,1,0,0.6825928000034761,1
2658,55,Larynx,Sham,Cons,Clear,7,2,1,0.578115500044078,1
2659,55,Larynx,Sham,Cons,Clear,8,4,1,0.49368079996202097,1
2660,55,Larynx,Sham,Cons,Clear,9,1,0,0.50125760002993,1
2661,55,Larynx,Sham,Cons,Clear,10,3,1,0.46261219994630703,1
2662,55,Larynx,Sham,Cons,Clear,11,4,1,0.44901630003005294,1
2663,55,Larynx,Sham,Cons,Clear,12,1,0,0.457939499989152,1
2664,55,Larynx,Sham,Cons,Clear,13,5,1,0.412294800044037,1
2665,55,Larynx,Sham,Cons,Clear,14,3,1,0.412832199945115,1
2666,55,Larynx,Sham,Cons,Clear,15,3,1,0.400856700027362,1
2667,55,Larynx,Sham,Cons,Clear,16,5,1,0.488825099891983,1
2668,55,Larynx,Sham,Cons,Clear,17,2,0,1.04162819997873,1
2669,55,Larynx,Sham,Cons,Clear,18,2,1,0.473968900041655,1
2670,55,Larynx,Sham,Cons,Clear,19,3,1,0.37195810000412205,1
2671,55,Larynx,Sham,Cons,Clear,20,4,1,0.528839699923992,1
2672,55,Larynx,Sham,Cons,Clear,21,3,1,0.48345010005869,1
2673,55,Larynx,Sham,Cons,Clear,22,4,1,0.539515699958429,1
2674,55,Larynx,Sham,Cons,Clear,23,1,1,1.21700820000842,1
2675,55,Larynx,Sham,Cons,Clear,24,3,1,0.7850910000270229,1
2676,55,Larynx,Sham,Cons,Clear,25,2,0,0.8673005000455309,1
2677,55,Larynx,Sham,Cons,Clear,26,3,1,0.49269039998762304,1
2678,55,Larynx,Sham,Cons,Clear,27,4,1,0.529948699986562,1
2679,55,Larynx,Sham,Cons,Clear,28,5,1,0.5745814999099821,1
2680,55,Larynx,Sham,Cons,Clear,29,1,0,0.472347900038585,1
2681,55,Larynx,Sham,Cons,Clear,30,2,0,0.9732041000388559,1
2682,55,Larynx,Sham,Cons,Clear,31,3,1,0.434497099951841,1
2683,55,Larynx,Sham,Cons,Clear,32,4,1,0.521754699992016,1
2684,55,Larynx,Sham,Cons,Clear,33,5,1,0.55417929997202,1
2685,55,Larynx,Sham,Cons,Clear,34,3,1,0.5580500999931249,1
2686,55,Larynx,Sham,Cons,Clear,35,2,0,0.958747299970128,1
2687,55,Larynx,Sham,Cons,Clear,36,1,0,0.8038388999411841,1
2688,55,Larynx,Sham,Cons,Clear,37,2,1,0.752397899981588,1
2689,55,Larynx,Sham,Cons,Clear,38,3,1,0.696927699958906,1
2690,55,Larynx,Sham,Cons,Clear,39,5,1,0.638439400005154,1
2691,55,Larynx,Sham,Cons,Clear,40,3,0,0.665475399931893,1
2692,55,Larynx,Sham,Cons,Clear,41,1,0,0.804136399994604,1
2693,55,Larynx,Sham,Cons,Clear,42,1,0,0.8864494999870659,1
2694,55,Larynx,Sham,Cons,Clear,43,2,0,0.716498899972066,1
2695,55,Larynx,Sham,Cons,Clear,44,2,1,0.8734404999995601,1
2696,55,Larynx,Sham,Cons,Clear,45,2,1,1.56464120000601,1
2697,55,Larynx,Sham,Cons,Clear,46,3,1,1.4582583999726901,1
2698,55,Larynx,Sham,Cons,Clear,47,5,1,0.69781350006815,1
2699,55,Larynx,Sham,Cons,Clear,48,5,1,0.7539287999970842,1
2700,55,Larynx,Sham,Cons,Clear,49,1,0,0.556172900018282,1
2701,55,Larynx,Sham,Cons,Clear,50,1,0,0.539429800002836,1
2702,55,Larynx,Sham,Cons,Clear,51,3,1,0.5126088999677451,1
2703,55,Larynx,Sham,Cons,Clear,52,4,1,0.5100682999473071,1
2704,55,Larynx,Sham,Cons,Clear,53,4,1,0.57039539993275,1
2705,55,Larynx,Sham,Cons,Clear,54,5,1,0.5973072999622671,1
2706,55,Larynx,Sham,Cons,Clear,55,5,1,0.543352500069886,1
2707,55,Larynx,Sham,Cons,Clear,56,3,1,1.17996950005181,1
2708,55,Larynx,Sham,Cons,Clear,57,4,1,0.667081900057383,1
2709,55,Larynx,Sham,Cons,Clear,58,3,1,0.553447399986908,1
2710,55,Larynx,Sham,Cons,Clear,59,2,0,0.563202399993315,1
2711,55,Larynx,Sham,Cons,Clear,60,2,0,0.6657547999639061,1
2712,55,Larynx,Sham,Cons,Clear,61,3,1,0.5075607999460771,1
2713,55,Larynx,Sham,Cons,Clear,62,4,1,0.530659900046885,1
2714,55,Larynx,Sham,Cons,Clear,63,3,1,0.875839100102894,1
2715,55,Larynx,Sham,Cons,Clear,64,4,1,0.598167099989951,1
2716,55,Larynx,Sham,Cons,Clear,65,2,0,1.03669149999041,1
2717,55,Larynx,Sham,Cons,Clear,66,3,0,1.1199778000591298,1
2718,55,Larynx,Sham,Cons,Clear,67,3,1,1.98254430002999,1
2719,55,Larynx,Sham,Cons,Clear,68,5,1,0.583603100036271,1
2720,55,Larynx,Sham,Cons,Clear,69,4,1,0.612070000031963,1
2721,55,Larynx,Sham,Cons,Clear,70,5,1,0.518571099964902,1
2722,55,Larynx,Sham,Cons,Clear,71,2,0,0.589270600001328,1
2723,55,Larynx,Sham,Cons,Clear,72,4,1,0.447820200002752,1
2724,55,Larynx,Sham,Cons,Clear,73,2,0,0.8609258999349549,1
2725,55,Larynx,Sham,Cons,Clear,74,4,1,0.75710839999374,1
2726,55,Larynx,Sham,Cons,Clear,75,1,0,0.587426299927756,1
2727,55,Larynx,Sham,Cons,Clear,76,3,1,0.6245000999188051,1
2728,55,Larynx,Sham,Cons,Clear,77,1,0,0.5144118999596691,1
2729,55,Larynx,Sham,Cons,Clear,78,3,1,0.586247499915771,1
2730,55,Larynx,Sham,Cons,Clear,79,5,1,0.634433800005354,1
2731,55,Larynx,Sham,Cons,Clear,80,2,1,0.983725999947637,1
2732,55,Larynx,Sham,Cons,Clear,81,4,1,0.565881899907254,1
2733,55,Larynx,Sham,Cons,Clear,82,3,1,0.6869611999718471,1
2734,55,Larynx,Sham,Cons,Clear,83,5,1,0.9323210000293329,1
2735,55,Larynx,Sham,Cons,Clear,84,1,0,1.01071979990229,1
2736,55,Larynx,Sham,Cons,Clear,85,4,1,0.6462203999981279,1
2737,55,Larynx,Sham,Cons,Clear,86,5,1,0.616794099914841,1
2738,55,Larynx,Sham,Cons,Clear,87,2,0,0.617599799996242,1
2739,55,Larynx,Sham,Cons,Clear,88,5,1,0.517924600047991,1
2740,55,Larynx,Sham,Cons,Clear,89,5,1,1.09142780001275,1
2741,55,Larynx,Sham,Cons,Clear,90,3,1,0.998555000056513,1
2742,55,Larynx,Sham,Cons,Clear,91,4,1,0.720264800009318,1
2743,55,Larynx,Sham,Cons,Clear,92,3,1,0.6469617999391629,1
2744,55,Larynx,Sham,Cons,Clear,93,3,1,0.596635499969125,1
2745,55,Larynx,Sham,Cons,Clear,94,4,1,2.31250889995135,1
2746,55,Larynx,Sham,Cons,Clear,95,1,0,0.549397900002077,1
2747,55,Larynx,Sham,Cons,Clear,96,1,0,0.8234475000062959,1
2748,55,Larynx,Sham,Cons,Clear,97,4,1,1.1256134000141202,1
2749,55,Larynx,Sham,Cons,Clear,98,2,0,1.0388919999823,1
2750,55,Larynx,Sham,Cons,Clear,99,2,1,0.991586300078779,1
2751,55,Larynx,Sham,Cons,Clear,100,3,1,0.832184799946845,1
2752,55,Larynx,Sham,Cons,Clear,101,3,1,0.674170100013725,1
2753,55,Larynx,Sham,Cons,Clear,102,1,0,0.6098851999267939,1
2754,55,Larynx,Sham,Cons,Clear,103,4,1,0.682268599979579,1
2755,55,Larynx,Sham,Cons,Clear,104,3,1,1.28205010003876,1
2756,55,Larynx,Sham,Cons,Clear,105,2,0,1.01399539993145,1
2757,55,Larynx,Sham,Cons,Clear,106,2,1,1.19507280003745,1
2758,55,Larynx,Sham,Cons,Clear,107,4,1,0.750296999933198,1
2759,55,Larynx,Sham,Cons,Clear,108,3,1,0.673163900035433,1
2760,55,Larynx,Sham,Cons,Clear,109,4,1,0.8813494999194521,1
2761,55,Larynx,Sham,Cons,Clear,110,1,0,0.596333499997854,1
2762,55,Larynx,Sham,Cons,Clear,111,1,0,0.537975999992341,1
2763,55,Larynx,Sham,Cons,Clear,112,2,0,0.63407729996834,1
2764,55,Larynx,Sham,Cons,Clear,113,2,1,1.0127371998969499,1
2765,55,Larynx,Sham,Cons,Clear,114,3,1,1.0349351000040798,1
2766,55,Larynx,Sham,Cons,Clear,115,3,1,0.7054344998905441,1
2767,55,Larynx,Sham,Cons,Clear,116,5,1,0.68861630000174,1
2768,55,Larynx,Sham,Cons,Clear,117,3,1,0.748984400066547,1
2769,55,Larynx,Sham,Cons,Clear,118,5,1,0.6910728000802919,1
2770,55,Larynx,Sham,Cons,Clear,119,3,1,0.630544800078496,1
2771,55,Larynx,Sham,Cons,Clear,120,1,0,0.566733799991198,1
2772,55,Larynx,Sham,Cons,Clear,121,2,0,0.7773271000478421,1
2773,55,Larynx,Sham,Cons,Clear,122,3,1,1.02154910005629,1
2774,55,Larynx,Sham,Cons,Clear,123,4,1,0.657522000023164,1
2775,55,Larynx,Sham,Cons,Clear,124,3,1,0.688550400082022,1
2776,55,Larynx,Sham,Cons,Clear,125,4,1,0.532777699991129,1
2777,55,Larynx,Sham,Cons,Clear,126,3,1,0.7433516000164669,1
2778,55,Larynx,Sham,Cons,Clear,127,3,1,0.631413799943402,1
2779,55,Larynx,Sham,Cons,Clear,128,5,1,0.805384799954481,1
2780,55,Larynx,Sham,Cons,Clear,129,2,0,0.585150099941529,1
2781,55,Larynx,Sham,Cons,Clear,130,4,1,0.6267780999187379,1
2782,55,Larynx,Sham,Cons,Clear,131,3,1,0.8556218999437991,1
2783,55,Larynx,Sham,Cons,Clear,132,1,0,0.79002020007465,1
2784,55,Larynx,Sham,Cons,Clear,133,2,0,0.8613106000702829,1
2785,55,Larynx,Sham,Cons,Clear,134,1,0,0.709599800058641,1
2786,55,Larynx,Sham,Cons,Clear,135,4,1,0.559192699962296,1
2787,55,Larynx,Sham,Cons,Clear,136,2,0,0.7048461000667879,1
2788,55,Larynx,Sham,Cons,Clear,137,2,0,1.0829685999779002,1
2789,55,Larynx,Sham,Cons,Clear,138,1,0,0.707380799925886,1
2790,55,Larynx,Sham,Cons,Clear,139,4,1,1.01547589991242,1
2791,55,Larynx,Sham,Cons,Clear,140,3,0,1.4180633999640102,1
2792,55,Larynx,Sham,Cons,Clear,141,5,1,1.19451719999779,1
2793,55,Larynx,Sham,Cons,Clear,142,2,0,0.957568400073797,1
2794,55,Larynx,Sham,Cons,Clear,143,3,1,0.7927589000901211,1
2795,55,Larynx,Sham,Cons,Clear,144,3,1,0.829562400002033,1
2796,55,Larynx,Sham,Cons,Clear,145,5,1,0.7888248000526801,1
2797,55,Larynx,Sham,Cons,Clear,146,1,0,0.9875916000455619,1
2798,55,Larynx,Sham,Cons,Clear,147,5,1,1.0835322999628298,1
2799,55,Larynx,Sham,Cons,Clear,148,4,1,0.6853675000602379,1
2800,55,Larynx,Sham,Cons,Clear,149,3,1,0.6188969999784599,1
2801,55,Larynx,Sham,Cons,Clear,150,4,1,0.862097200006247,1
2802,55,Larynx,Sham,Cons,Clear,151,2,0,0.5490051000379029,1
2803,55,Larynx,Sham,Cons,Clear,152,1,0,0.534602500032634,1
2804,55,Larynx,Sham,Cons,Clear,153,3,1,3.14731749997009,1
2805,55,Larynx,Sham,Cons,Clear,154,2,0,0.5928573999553921,1
2806,55,Larynx,Sham,Cons,Clear,155,4,1,0.627199400099926,1
2807,55,Larynx,Sham,Cons,Clear,156,5,1,0.500713000074029,1
3900,104,Larynx,Left cTBS,Cons,Clear,1,3,0,0.646596399950795,1
3901,104,Larynx,Left cTBS,Cons,Clear,2,4,1,0.499699199921452,1
3902,104,Larynx,Left cTBS,Cons,Clear,3,4,1,0.48106110002845504,1
3903,104,Larynx,Left cTBS,Cons,Clear,4,5,1,0.520255899988115,1
3904,104,Larynx,Left cTBS,Cons,Clear,5,4,1,0.44739159999880895,1
3905,104,Larynx,Left cTBS,Cons,Clear,6,4,1,0.43704580003395704,1
3906,104,Larynx,Left cTBS,Cons,Clear,7,5,1,0.4320477000437679,1
3907,104,Larynx,Left cTBS,Cons,Clear,8,5,1,0.41270250000525294,1
3908,104,Larynx,Left cTBS,Cons,Clear,9,1,0,0.476772299967706,1
3909,104,Larynx,Left cTBS,Cons,Clear,10,3,1,0.455412100069225,1
3910,104,Larynx,Left cTBS,Cons,Clear,11,5,1,0.43497359997127205,1
3911,104,Larynx,Left cTBS,Cons,Clear,12,2,1,0.39305029995739504,1
3912,104,Larynx,Left cTBS,Cons,Clear,13,3,1,0.49321460002102,1
3913,104,Larynx,Left cTBS,Cons,Clear,14,1,0,0.545615800074302,1
3914,104,Larynx,Left cTBS,Cons,Clear,15,1,0,0.42971579998265996,1
3915,104,Larynx,Left cTBS,Cons,Clear,16,2,1,0.512555800029077,1
3916,104,Larynx,Left cTBS,Cons,Clear,17,3,1,0.545115499990061,1
3917,104,Larynx,Left cTBS,Cons,Clear,18,1,0,0.534692900022492,1
3918,104,Larynx,Left cTBS,Cons,Clear,19,3,1,0.464594100019895,1
3919,104,Larynx,Left cTBS,Cons,Clear,20,3,1,0.518928200006485,1
3920,104,Larynx,Left cTBS,Cons,Clear,21,3,1,0.44954569998662897,1
3921,104,Larynx,Left cTBS,Cons,Clear,22,4,1,0.3986189999850471,1
3922,104,Larynx,Left cTBS,Cons,Clear,23,4,1,0.43908259994350396,1
3923,104,Larynx,Left cTBS,Cons,Clear,24,5,1,0.39622620004229203,1
3924,104,Larynx,Left cTBS,Cons,Clear,25,3,1,0.33350370009429803,1
3925,104,Larynx,Left cTBS,Cons,Clear,26,3,1,0.399747700081207,1
3926,104,Larynx,Left cTBS,Cons,Clear,27,3,1,0.37430449994280895,1
3927,104,Larynx,Left cTBS,Cons,Clear,28,1,0,0.44053879997227297,1
3928,104,Larynx,Left cTBS,Cons,Clear,29,4,1,0.41962150007020704,1
3929,104,Larynx,Left cTBS,Cons,Clear,30,2,0,0.5781352999620141,1
3930,104,Larynx,Left cTBS,Cons,Clear,31,2,1,0.562421300099231,1
3931,104,Larynx,Left cTBS,Cons,Clear,32,3,1,0.480857599992305,1
3932,104,Larynx,Left cTBS,Cons,Clear,33,4,1,0.420319400029257,1
3933,104,Larynx,Left cTBS,Cons,Clear,34,5,1,0.388909799978137,1
3934,104,Larynx,Left cTBS,Cons,Clear,35,2,0,0.427822800003923,1
3935,104,Larynx,Left cTBS,Cons,Clear,36,2,0,0.41882809996604903,1
3936,104,Larynx,Left cTBS,Cons,Clear,37,2,0,0.461648400058039,1
3937,104,Larynx,Left cTBS,Cons,Clear,38,1,0,0.546659999992698,1
3938,104,Larynx,Left cTBS,Cons,Clear,39,2,0,0.692266899975948,1
3939,104,Larynx,Left cTBS,Cons,Clear,40,4,1,0.48146999999880796,1
3940,104,Larynx,Left cTBS,Cons,Clear,41,3,1,0.595973000046797,1
3941,104,Larynx,Left cTBS,Cons,Clear,42,4,1,0.361594800022431,1
3942,104,Larynx,Left cTBS,Cons,Clear,43,1,0,0.45153159997426,1
3943,104,Larynx,Left cTBS,Cons,Clear,44,1,1,0.5020946000004191,1
3944,104,Larynx,Left cTBS,Cons,Clear,45,2,1,0.429942300077528,1
3945,104,Larynx,Left cTBS,Cons,Clear,46,4,1,0.46287699998356396,1
3946,104,Larynx,Left cTBS,Cons,Clear,47,4,0,0.37350610003340995,1
3947,104,Larynx,Left cTBS,Cons,Clear,48,5,1,0.631866800016724,1
3948,104,Larynx,Left cTBS,Cons,Clear,49,4,1,0.419965799897909,1
3949,104,Larynx,Left cTBS,Cons,Clear,50,2,0,0.580717499949969,1
3950,104,Larynx,Left cTBS,Cons,Clear,51,1,0,0.6862479000119489,1
3951,104,Larynx,Left cTBS,Cons,Clear,52,3,1,0.42814130010083296,1
3952,104,Larynx,Left cTBS,Cons,Clear,53,5,1,0.5548557000001889,1
3953,104,Larynx,Left cTBS,Cons,Clear,54,2,1,0.360545100062154,1
3954,104,Larynx,Left cTBS,Cons,Clear,55,2,0,0.49439490004442604,1
3955,104,Larynx,Left cTBS,Cons,Clear,56,3,1,0.4411068999907,1
3956,104,Larynx,Left cTBS,Cons,Clear,57,5,1,0.38647340005263703,1
3957,104,Larynx,Left cTBS,Cons,Clear,58,3,0,0.495761599973775,1
3958,104,Larynx,Left cTBS,Cons,Clear,59,3,1,0.416421200032346,1
3959,104,Larynx,Left cTBS,Cons,Clear,60,2,0,0.499028200050816,1
3960,104,Larynx,Left cTBS,Cons,Clear,61,3,1,0.46643949998542705,1
3961,104,Larynx,Left cTBS,Cons,Clear,62,4,1,0.40376110002398496,1
3962,104,Larynx,Left cTBS,Cons,Clear,63,3,1,0.46163909998722397,1
3963,104,Larynx,Left cTBS,Cons,Clear,64,5,1,0.391434699995443,1
3964,104,Larynx,Left cTBS,Cons,Clear,65,3,1,0.325748299947008,1
3965,104,Larynx,Left cTBS,Cons,Clear,66,3,1,0.394752599997446,1
3966,104,Larynx,Left cTBS,Cons,Clear,67,4,1,0.37269160000141704,1
3967,104,Larynx,Left cTBS,Cons,Clear,68,1,0,0.5497613999759781,1
3968,104,Larynx,Left cTBS,Cons,Clear,69,3,1,0.38063369994051793,1
3969,104,Larynx,Left cTBS,Cons,Clear,70,5,1,0.374976600054652,1
3970,104,Larynx,Left cTBS,Cons,Clear,71,3,0,0.46636139997281106,1
3971,104,Larynx,Left cTBS,Cons,Clear,72,4,1,0.608392500085756,1
3972,104,Larynx,Left cTBS,Cons,Clear,73,5,1,0.383886200026609,1
3973,104,Larynx,Left cTBS,Cons,Clear,74,2,0,0.5438952000113201,1
3974,104,Larynx,Left cTBS,Cons,Clear,75,1,0,0.5792885000118989,1
3975,104,Larynx,Left cTBS,Cons,Clear,76,2,1,0.559892399935052,1
3976,104,Larynx,Left cTBS,Cons,Clear,77,1,0,0.570649200002663,1
3977,104,Larynx,Left cTBS,Cons,Clear,78,2,0,0.509534299955703,1
3978,104,Larynx,Left cTBS,Cons,Clear,79,5,1,0.625307100010104,1
3979,104,Larynx,Left cTBS,Cons,Clear,80,2,0,0.637665500049479,1
3980,104,Larynx,Left cTBS,Cons,Clear,81,2,0,0.511226400034502,1
3981,104,Larynx,Left cTBS,Cons,Clear,82,2,1,0.4199431000743061,1
3982,104,Larynx,Left cTBS,Cons,Clear,83,4,1,0.404099800041877,1
3983,104,Larynx,Left cTBS,Cons,Clear,84,2,0,0.540514799999073,1
3984,104,Larynx,Left cTBS,Cons,Clear,85,2,1,0.346743099973537,1
3985,104,Larynx,Left cTBS,Cons,Clear,86,1,0,0.53197100001853,1
3986,104,Larynx,Left cTBS,Cons,Clear,87,5,1,0.467923699994572,1
3987,104,Larynx,Left cTBS,Cons,Clear,88,5,1,0.4878693999489771,1
3988,104,Larynx,Left cTBS,Cons,Clear,89,3,1,0.468558699940331,1
3989,104,Larynx,Left cTBS,Cons,Clear,90,3,1,0.5203968000132589,1
3990,104,Larynx,Left cTBS,Cons,Clear,91,3,1,0.365633600042202,1
3991,104,Larynx,Left cTBS,Cons,Clear,92,4,1,0.446627199999057,1
3992,104,Larynx,Left cTBS,Cons,Clear,93,4,1,0.36055410001426896,1
3993,104,Larynx,Left cTBS,Cons,Clear,94,5,1,0.3923938999651,1
3994,104,Larynx,Left cTBS,Cons,Clear,95,4,1,0.362263699993491,1
3995,104,Larynx,Left cTBS,Cons,Clear,96,5,1,0.720130699919537,1
3996,104,Larynx,Left cTBS,Cons,Clear,97,1,0,0.557004999951459,1
3997,104,Larynx,Left cTBS,Cons,Clear,98,3,1,0.533219400094822,1
3998,104,Larynx,Left cTBS,Cons,Clear,99,1,0,0.49971140001434794,1
3999,104,Larynx,Left cTBS,Cons,Clear,100,3,1,0.44243840000126505,1
4000,104,Larynx,Left cTBS,Cons,Clear,101,1,0,0.502364299958572,1
4001,104,Larynx,Left cTBS,Cons,Clear,102,4,1,0.44796979997772707,1
4002,104,Larynx,Left cTBS,Cons,Clear,103,3,1,0.455968299997039,1
4003,104,Larynx,Left cTBS,Cons,Clear,104,4,1,0.41741329990327397,1
4004,104,Larynx,Left cTBS,Cons,Clear,105,2,0,0.627433500019833,1
4005,104,Larynx,Left cTBS,Cons,Clear,106,3,1,0.467454699915834,1
4006,104,Larynx,Left cTBS,Cons,Clear,107,3,1,0.376242899917997,1
4007,104,Larynx,Left cTBS,Cons,Clear,108,5,1,0.381666800007224,1
4008,104,Larynx,Left cTBS,Cons,Clear,109,3,1,0.359493399970233,1
4009,104,Larynx,Left cTBS,Cons,Clear,110,2,1,0.37397539999801704,1
4010,104,Larynx,Left cTBS,Cons,Clear,111,1,0,0.44960129994433395,1
4011,104,Larynx,Left cTBS,Cons,Clear,112,4,1,0.45174799999222204,1
4012,104,Larynx,Left cTBS,Cons,Clear,113,3,1,0.402041699970141,1
4013,104,Larynx,Left cTBS,Cons,Clear,114,4,1,0.381409299909137,1
4014,104,Larynx,Left cTBS,Cons,Clear,115,1,0,0.511245800065808,1
4015,104,Larynx,Left cTBS,Cons,Clear,116,2,1,0.576733399997465,1
4016,104,Larynx,Left cTBS,Cons,Clear,117,3,1,0.5351167999906471,1
4017,104,Larynx,Left cTBS,Cons,Clear,118,1,1,0.34008360002189897,1
4018,104,Larynx,Left cTBS,Cons,Clear,119,3,1,0.51143110007979,1
4019,104,Larynx,Left cTBS,Cons,Clear,120,1,0,0.469043000019155,1
4020,104,Larynx,Left cTBS,Cons,Clear,121,3,1,0.5200699999695639,1
4021,104,Larynx,Left cTBS,Cons,Clear,122,2,1,0.5003838000120601,1
4022,104,Larynx,Left cTBS,Cons,Clear,123,4,1,0.44539000000804707,1
4023,104,Larynx,Left cTBS,Cons,Clear,124,4,1,0.437849699985236,1
4024,104,Larynx,Left cTBS,Cons,Clear,125,3,1,0.407693300046958,1
4025,104,Larynx,Left cTBS,Cons,Clear,126,3,1,0.413103199913166,1
4026,104,Larynx,Left cTBS,Cons,Clear,127,2,0,0.516382500063628,1
4027,104,Larynx,Left cTBS,Cons,Clear,128,4,1,0.44905339996330396,1
4028,104,Larynx,Left cTBS,Cons,Clear,129,5,1,0.48272980004549,1
4029,104,Larynx,Left cTBS,Cons,Clear,130,2,1,0.457447999971919,1
4030,104,Larynx,Left cTBS,Cons,Clear,131,1,0,0.626548699918203,1
4031,104,Larynx,Left cTBS,Cons,Clear,132,2,0,0.516089800046757,1
4032,104,Larynx,Left cTBS,Cons,Clear,133,5,1,0.588632600032724,1
4033,104,Larynx,Left cTBS,Cons,Clear,134,3,0,0.561791199957952,1
4034,104,Larynx,Left cTBS,Cons,Clear,135,3,1,0.436658199992962,1
4035,104,Larynx,Left cTBS,Cons,Clear,136,3,1,0.445160400005989,1
4036,104,Larynx,Left cTBS,Cons,Clear,137,2,1,0.37783849996049,1
4037,104,Larynx,Left cTBS,Cons,Clear,138,3,0,0.4612634000368421,1
4038,104,Larynx,Left cTBS,Cons,Clear,139,4,1,0.4704726999625561,1
4039,104,Larynx,Left cTBS,Cons,Clear,140,3,1,0.5885194999864319,1
4040,104,Larynx,Left cTBS,Cons,Clear,141,4,1,0.36590660002548203,1
4041,104,Larynx,Left cTBS,Cons,Clear,142,1,0,0.433916699956171,1
4042,104,Larynx,Left cTBS,Cons,Clear,143,5,1,0.49033499998040503,1
4043,104,Larynx,Left cTBS,Cons,Clear,144,2,1,0.445763100055046,1
4044,104,Larynx,Left cTBS,Cons,Clear,145,3,1,0.436756000039168,1
4045,104,Larynx,Left cTBS,Cons,Clear,146,4,1,0.46528889995534,1
4046,104,Larynx,Left cTBS,Cons,Clear,147,1,1,0.37685670005157595,1
4047,104,Larynx,Left cTBS,Cons,Clear,148,1,0,0.490005099913105,1
4048,104,Larynx,Left cTBS,Cons,Clear,149,2,0,0.6661241999827329,1
4049,104,Larynx,Left cTBS,Cons,Clear,150,5,1,0.583886099979281,1
4050,104,Larynx,Left cTBS,Cons,Clear,151,5,1,0.689172700047493,1
4051,104,Larynx,Left cTBS,Cons,Clear,152,5,1,0.435537200071849,1
4052,104,Larynx,Left cTBS,Cons,Clear,153,4,1,0.37022539996542,1
4053,104,Larynx,Left cTBS,Cons,Clear,154,3,1,0.49634369998239003,1
4054,104,Larynx,Left cTBS,Cons,Clear,155,2,0,0.494552899966948,1
4055,104,Larynx,Left cTBS,Cons,Clear,156,4,1,0.459096700069495,1
5772,104,Larynx,Sham,Cons,Clear,1,5,1,0.54217620001873,1
5773,104,Larynx,Sham,Cons,Clear,2,4,1,0.473736500018276,1
5774,104,Larynx,Sham,Cons,Clear,3,5,1,0.565381099993829,1
5775,104,Larynx,Sham,Cons,Clear,4,1,0,0.48616480000782797,1
5776,104,Larynx,Sham,Cons,Clear,5,3,1,0.5061584000359289,1
5777,104,Larynx,Sham,Cons,Clear,6,2,0,0.4990793000324629,1
5778,104,Larynx,Sham,Cons,Clear,7,3,1,0.533470900030807,1
5779,104,Larynx,Sham,Cons,Clear,8,5,1,0.505453899968416,1
5780,104,Larynx,Sham,Cons,Clear,9,2,0,0.522840399993584,1
5781,104,Larynx,Sham,Cons,Clear,10,4,1,0.513250000018161,1
5782,104,Larynx,Sham,Cons,Clear,11,5,1,0.4591902999673039,1
5783,104,Larynx,Sham,Cons,Clear,12,2,0,0.630246600019746,1
5784,104,Larynx,Sham,Cons,Clear,13,2,1,0.5153674000175671,1
5785,104,Larynx,Sham,Cons,Clear,14,4,1,0.472850700025447,1
5786,104,Larynx,Sham,Cons,Clear,15,1,0,0.49339359998703003,1
5787,104,Larynx,Sham,Cons,Clear,16,3,1,0.527748099993914,1
5788,104,Larynx,Sham,Cons,Clear,17,3,1,0.5583371000248011,1
5789,104,Larynx,Sham,Cons,Clear,18,3,1,0.46111649996601,1
5790,104,Larynx,Sham,Cons,Clear,19,5,1,0.5770577000221241,1
5791,104,Larynx,Sham,Cons,Clear,20,2,0,0.525021100009326,1
5792,104,Larynx,Sham,Cons,Clear,21,1,0,0.619894800009206,1
5793,104,Larynx,Sham,Cons,Clear,22,2,0,0.647787900001276,1
5794,104,Larynx,Sham,Cons,Clear,23,4,1,0.527280100039206,1
5795,104,Larynx,Sham,Cons,Clear,24,3,1,0.44842109997989604,1
5796,104,Larynx,Sham,Cons,Clear,25,4,1,0.488744899979793,1
5797,104,Larynx,Sham,Cons,Clear,26,1,1,0.527383700013161,1
5798,104,Larynx,Sham,Cons,Clear,27,5,1,0.514945700007956,1
5799,104,Larynx,Sham,Cons,Clear,28,1,0,0.44627189997117994,1
5800,104,Larynx,Sham,Cons,Clear,29,2,0,0.6161940000019971,1
5801,104,Larynx,Sham,Cons,Clear,30,3,1,0.455433700000867,1
5802,104,Larynx,Sham,Cons,Clear,31,4,1,0.5481247999705371,1
5803,104,Larynx,Sham,Cons,Clear,32,3,1,0.485210099956021,1
5804,104,Larynx,Sham,Cons,Clear,33,1,0,0.513042300008237,1
5805,104,Larynx,Sham,Cons,Clear,34,4,1,0.871084999991581,1
5806,104,Larynx,Sham,Cons,Clear,35,3,1,0.45746450003934996,1
5807,104,Larynx,Sham,Cons,Clear,36,2,0,0.573562600009609,1
5808,104,Larynx,Sham,Cons,Clear,37,3,1,0.462526999996044,1
5809,104,Larynx,Sham,Cons,Clear,38,4,1,0.564457700005732,1
5810,104,Larynx,Sham,Cons,Clear,39,3,1,0.532685099984519,1
5811,104,Larynx,Sham,Cons,Clear,40,4,1,0.5131989999790679,1
5812,104,Larynx,Sham,Cons,Clear,41,2,0,0.5344274999806661,1
5813,104,Larynx,Sham,Cons,Clear,42,2,0,0.616808300022967,1
5814,104,Larynx,Sham,Cons,Clear,43,3,1,0.42841319995932303,1
5815,104,Larynx,Sham,Cons,Clear,44,3,1,0.5148760000010949,1
5816,104,Larynx,Sham,Cons,Clear,45,3,1,0.49283830000786105,1
5817,104,Larynx,Sham,Cons,Clear,46,4,1,0.484478899976239,1
5818,104,Larynx,Sham,Cons,Clear,47,1,0,0.5019393000402489,1
5819,104,Larynx,Sham,Cons,Clear,48,1,0,0.56290869996883,1
5820,104,Larynx,Sham,Cons,Clear,49,2,1,0.544558499997947,1
5821,104,Larynx,Sham,Cons,Clear,50,2,1,0.573706800001673,1
5822,104,Larynx,Sham,Cons,Clear,51,4,0,0.5365358999697489,1
5823,104,Larynx,Sham,Cons,Clear,52,5,1,0.528892100031953,1
5824,104,Larynx,Sham,Cons,Clear,53,5,1,0.5170103000127709,1
5825,104,Larynx,Sham,Cons,Clear,54,3,1,0.443576999998186,1
5826,104,Larynx,Sham,Cons,Clear,55,2,0,0.581511999946088,1
5827,104,Larynx,Sham,Cons,Clear,56,4,1,0.5461152000352739,1
5828,104,Larynx,Sham,Cons,Clear,57,1,0,0.47977859998354705,1
5829,104,Larynx,Sham,Cons,Clear,58,1,0,0.597954800003208,1
5830,104,Larynx,Sham,Cons,Clear,59,3,1,0.80266849999316,1
5831,104,Larynx,Sham,Cons,Clear,60,3,1,0.38125279999803796,1
5832,104,Larynx,Sham,Cons,Clear,61,2,1,0.413126499974169,1
5833,104,Larynx,Sham,Cons,Clear,62,5,1,0.546250400017016,1
5834,104,Larynx,Sham,Cons,Clear,63,4,1,0.465906099998392,1
5835,104,Larynx,Sham,Cons,Clear,64,5,1,0.5102909000124779,1
5836,104,Larynx,Sham,Cons,Clear,65,3,1,0.476481700025033,1
5837,104,Larynx,Sham,Cons,Clear,66,4,1,0.48661359999096,1
5838,104,Larynx,Sham,Cons,Clear,67,3,0,0.5267224999843171,1
5839,104,Larynx,Sham,Cons,Clear,68,1,0,0.501445500005502,1
5840,104,Larynx,Sham,Cons,Clear,69,5,1,0.54137140000239,1
5841,104,Larynx,Sham,Cons,Clear,70,1,0,0.486798400001135,1
5842,104,Larynx,Sham,Cons,Clear,71,3,1,0.453014700033236,1
5843,104,Larynx,Sham,Cons,Clear,72,5,1,0.590146999980789,1
5844,104,Larynx,Sham,Cons,Clear,73,3,1,0.422118399990723,1
5845,104,Larynx,Sham,Cons,Clear,74,3,1,0.5755529000307429,1
5846,104,Larynx,Sham,Cons,Clear,75,2,1,0.465502400009427,1
5847,104,Larynx,Sham,Cons,Clear,76,4,1,0.529361900000367,1
5848,104,Larynx,Sham,Cons,Clear,77,2,0,0.515499500033911,1
5849,104,Larynx,Sham,Cons,Clear,78,4,1,0.44251799996709495,1
5850,104,Larynx,Sham,Cons,Clear,79,2,0,0.507927200000267,1
5851,104,Larynx,Sham,Cons,Clear,80,3,1,0.440376899961848,1
5852,104,Larynx,Sham,Cons,Clear,81,5,1,0.5064943000325001,1
5853,104,Larynx,Sham,Cons,Clear,82,4,1,0.462487900047563,1
5854,104,Larynx,Sham,Cons,Clear,83,1,0,0.5009424999589099,1
5855,104,Larynx,Sham,Cons,Clear,84,2,0,0.5467011999571699,1
5856,104,Larynx,Sham,Cons,Clear,85,5,1,0.47329110000282504,1
5857,104,Larynx,Sham,Cons,Clear,86,1,0,0.6495555000146851,1
5858,104,Larynx,Sham,Cons,Clear,87,3,1,0.6062761999783111,1
5859,104,Larynx,Sham,Cons,Clear,88,1,0,0.572515000007115,1
5860,104,Larynx,Sham,Cons,Clear,89,3,1,0.499679500004277,1
5861,104,Larynx,Sham,Cons,Clear,90,1,0,0.610576399951242,1
5862,104,Larynx,Sham,Cons,Clear,91,4,1,0.546483399986755,1
5863,104,Larynx,Sham,Cons,Clear,92,5,1,0.46723989996826293,1
5864,104,Larynx,Sham,Cons,Clear,93,4,1,0.479005699977279,1
5865,104,Larynx,Sham,Cons,Clear,94,4,1,0.5714590999996291,1
5866,104,Larynx,Sham,Cons,Clear,95,5,1,0.45077739999396704,1
5867,104,Larynx,Sham,Cons,Clear,96,2,0,0.538016000005882,1
5868,104,Larynx,Sham,Cons,Clear,97,2,0,0.642330300004687,1
5869,104,Larynx,Sham,Cons,Clear,98,5,1,0.6043678999994879,1
5870,104,Larynx,Sham,Cons,Clear,99,3,1,0.8756600000197071,1
5871,104,Larynx,Sham,Cons,Clear,100,3,1,0.544679500046186,1
5872,104,Larynx,Sham,Cons,Clear,101,4,1,0.546213300025556,1
5873,104,Larynx,Sham,Cons,Clear,102,2,0,0.479171400016639,1
5874,104,Larynx,Sham,Cons,Clear,103,2,0,0.45737230003578605,1
5875,104,Larynx,Sham,Cons,Clear,104,1,0,0.565504500002135,1
5876,104,Larynx,Sham,Cons,Clear,105,4,1,0.452984999981709,1
5877,104,Larynx,Sham,Cons,Clear,106,3,1,0.539315500005614,1
5878,104,Larynx,Sham,Cons,Clear,107,3,1,0.49168530001770705,1
5879,104,Larynx,Sham,Cons,Clear,108,3,1,0.548901900008786,1
5880,104,Larynx,Sham,Cons,Clear,109,4,1,0.507146099989768,1
5881,104,Larynx,Sham,Cons,Clear,110,5,1,0.510643300018273,1
5882,104,Larynx,Sham,Cons,Clear,111,2,0,0.510525799996685,1
5883,104,Larynx,Sham,Cons,Clear,112,2,0,0.46232210000744106,1
5884,104,Larynx,Sham,Cons,Clear,113,3,1,0.577683099952992,1
5885,104,Larynx,Sham,Cons,Clear,114,3,1,0.406073999998625,1
5886,104,Larynx,Sham,Cons,Clear,115,3,1,0.491619299980812,1
5887,104,Larynx,Sham,Cons,Clear,116,1,0,0.45970150001812704,1
5888,104,Larynx,Sham,Cons,Clear,117,4,0,0.467920599970967,1
5889,104,Larynx,Sham,Cons,Clear,118,2,0,0.582914099970367,1
5890,104,Larynx,Sham,Cons,Clear,119,4,1,0.713134900026489,1
5891,104,Larynx,Sham,Cons,Clear,120,2,0,0.584985799971037,1
5892,104,Larynx,Sham,Cons,Clear,121,3,0,0.537598700029776,1
5893,104,Larynx,Sham,Cons,Clear,122,2,0,0.691351999994367,1
5894,104,Larynx,Sham,Cons,Clear,123,5,1,0.50302990002092,1
5895,104,Larynx,Sham,Cons,Clear,124,3,0,0.6628750999807379,1
5896,104,Larynx,Sham,Cons,Clear,125,5,1,0.688954600016586,1
5897,104,Larynx,Sham,Cons,Clear,126,4,1,0.419507600017823,1
5898,104,Larynx,Sham,Cons,Clear,127,4,1,0.483143899997231,1
5899,104,Larynx,Sham,Cons,Clear,128,1,0,0.492737900000066,1
5900,104,Larynx,Sham,Cons,Clear,129,3,1,0.472079499973916,1
5901,104,Larynx,Sham,Cons,Clear,130,5,1,0.53986179997446,1
5902,104,Larynx,Sham,Cons,Clear,131,4,1,0.673776000039652,1
5903,104,Larynx,Sham,Cons,Clear,132,2,0,0.525274000014178,1
5904,104,Larynx,Sham,Cons,Clear,133,3,0,0.581656299997121,1
5905,104,Larynx,Sham,Cons,Clear,134,2,0,0.606263499998022,1
5906,104,Larynx,Sham,Cons,Clear,135,5,1,0.569156599987764,1
5907,104,Larynx,Sham,Cons,Clear,136,3,1,0.477904599974863,1
5908,104,Larynx,Sham,Cons,Clear,137,3,1,0.492093099979684,1
5909,104,Larynx,Sham,Cons,Clear,138,2,0,0.567319600027986,1
5910,104,Larynx,Sham,Cons,Clear,139,1,0,0.614731899986509,1
5911,104,Larynx,Sham,Cons,Clear,140,4,1,0.463446200010367,1
5912,104,Larynx,Sham,Cons,Clear,141,1,0,0.496634599985555,1
5913,104,Larynx,Sham,Cons,Clear,142,3,1,0.494569499976933,1
5914,104,Larynx,Sham,Cons,Clear,143,4,0,0.513206099974923,1
5915,104,Larynx,Sham,Cons,Clear,144,4,0,0.511457599990536,1
5916,104,Larynx,Sham,Cons,Clear,145,1,0,0.673811900021974,1
5917,104,Larynx,Sham,Cons,Clear,146,2,0,0.6609083000221291,1
5918,104,Larynx,Sham,Cons,Clear,147,3,1,0.7313297000364399,1
5919,104,Larynx,Sham,Cons,Clear,148,5,1,0.457507600018289,1
5920,104,Larynx,Sham,Cons,Clear,149,4,1,0.468867199961096,1
5921,104,Larynx,Sham,Cons,Clear,150,5,1,0.43967539997538596,1
5922,104,Larynx,Sham,Cons,Clear,151,3,1,0.45602490002056606,1
5923,104,Larynx,Sham,Cons,Clear,152,2,0,0.50581299996702,1
5924,104,Larynx,Sham,Cons,Clear,153,3,0,0.493036300002132,1
5925,104,Larynx,Sham,Cons,Clear,154,3,0,0.379303699999582,1
5926,104,Larynx,Sham,Cons,Clear,155,1,1,0.36185420001857,1
5927,104,Larynx,Sham,Cons,Clear,156,1,0,0.50008169998182,1
7020,123,Larynx,Left cTBS,Cons,Clear,1,5,1,0.5666515999764671,1
7021,123,Larynx,Left cTBS,Cons,Clear,2,4,1,0.47653469999204395,1
7022,123,Larynx,Left cTBS,Cons,Clear,3,5,1,0.46194300000206606,1
7023,123,Larynx,Left cTBS,Cons,Clear,4,1,0,0.510289700003341,1
7024,123,Larynx,Left cTBS,Cons,Clear,5,3,1,0.42620940000051605,1
7025,123,Larynx,Left cTBS,Cons,Clear,6,2,1,0.40494509998825395,1
7026,123,Larynx,Left cTBS,Cons,Clear,7,3,1,0.48872490000212604,1
7027,123,Larynx,Left cTBS,Cons,Clear,8,5,1,0.407649500004482,1
7028,123,Larynx,Left cTBS,Cons,Clear,9,2,1,0.44426240000757394,1
7029,123,Larynx,Left cTBS,Cons,Clear,10,4,1,0.534466400014935,1
7030,123,Larynx,Left cTBS,Cons,Clear,11,5,1,0.513184199982788,1
7031,123,Larynx,Left cTBS,Cons,Clear,12,2,1,0.4591126999876,1
7032,123,Larynx,Left cTBS,Cons,Clear,13,2,0,0.592436399980215,1
7033,123,Larynx,Left cTBS,Cons,Clear,14,4,1,0.51394080001046,1
7034,123,Larynx,Left cTBS,Cons,Clear,15,1,0,0.598403000010876,1
7035,123,Larynx,Left cTBS,Cons,Clear,16,3,1,0.3854599999904171,1
7036,123,Larynx,Left cTBS,Cons,Clear,17,3,1,0.31120039999950705,1
7037,123,Larynx,Left cTBS,Cons,Clear,18,3,1,0.36303500001668,1
7038,123,Larynx,Left cTBS,Cons,Clear,19,5,1,0.36197649998939596,1
7039,123,Larynx,Left cTBS,Cons,Clear,20,2,1,0.541235299984692,1
7040,123,Larynx,Left cTBS,Cons,Clear,21,1,0,0.8475870999973271,1
7041,123,Larynx,Left cTBS,Cons,Clear,22,2,1,0.346066699974472,1
7042,123,Larynx,Left cTBS,Cons,Clear,23,4,1,0.33441380001022497,1
7043,123,Larynx,Left cTBS,Cons,Clear,24,3,1,0.28885109999100705,1
7044,123,Larynx,Left cTBS,Cons,Clear,25,4,1,0.305363600025885,1
7045,123,Larynx,Left cTBS,Cons,Clear,26,1,0,0.497884600015823,1
7046,123,Larynx,Left cTBS,Cons,Clear,27,5,1,0.39668689999962203,1
7047,123,Larynx,Left cTBS,Cons,Clear,28,1,1,0.334051999991061,1
7048,123,Larynx,Left cTBS,Cons,Clear,29,2,1,0.5499429000192321,1
7049,123,Larynx,Left cTBS,Cons,Clear,30,3,1,0.34955919999629304,1
7050,123,Larynx,Left cTBS,Cons,Clear,31,4,1,0.346030600019731,1
7051,123,Larynx,Left cTBS,Cons,Clear,32,3,1,0.36038739999639796,1
7052,123,Larynx,Left cTBS,Cons,Clear,33,1,0,0.53490050000255,1
7053,123,Larynx,Left cTBS,Cons,Clear,34,4,1,0.512227800005348,1
7054,123,Larynx,Left cTBS,Cons,Clear,35,3,1,0.67457539998577,1
7055,123,Larynx,Left cTBS,Cons,Clear,36,2,1,0.40431810001609797,1
7056,123,Larynx,Left cTBS,Cons,Clear,37,3,1,0.42014810000546293,1
7057,123,Larynx,Left cTBS,Cons,Clear,38,4,1,0.480637100001331,1
7058,123,Larynx,Left cTBS,Cons,Clear,39,3,1,0.4679796000127679,1
7059,123,Larynx,Left cTBS,Cons,Clear,40,4,1,0.46644600000581704,1
7060,123,Larynx,Left cTBS,Cons,Clear,41,2,1,0.941483399976278,1
7061,123,Larynx,Left cTBS,Cons,Clear,42,2,1,0.5525373999844311,1
7062,123,Larynx,Left cTBS,Cons,Clear,43,3,1,0.528954899986275,1
7063,123,Larynx,Left cTBS,Cons,Clear,44,3,1,0.532919599994784,1
7064,123,Larynx,Left cTBS,Cons,Clear,45,3,1,0.558982199989259,1
7065,123,Larynx,Left cTBS,Cons,Clear,46,4,1,0.514828399987891,1
7066,123,Larynx,Left cTBS,Cons,Clear,47,1,0,0.456990300008329,1
7067,123,Larynx,Left cTBS,Cons,Clear,48,1,0,0.5937251999857839,1
7068,123,Larynx,Left cTBS,Cons,Clear,49,2,1,0.36657690000720294,1
7069,123,Larynx,Left cTBS,Cons,Clear,50,2,1,0.8430819999775849,1
7070,123,Larynx,Left cTBS,Cons,Clear,51,4,1,0.35244609997607795,1
7071,123,Larynx,Left cTBS,Cons,Clear,52,5,1,0.488329600018915,1
7072,123,Larynx,Left cTBS,Cons,Clear,53,5,1,0.379659099999117,1
7073,123,Larynx,Left cTBS,Cons,Clear,54,3,1,0.36193859999184497,1
7074,123,Larynx,Left cTBS,Cons,Clear,55,2,1,0.394848700001603,1
7075,123,Larynx,Left cTBS,Cons,Clear,56,4,1,0.495710799994413,1
7076,123,Larynx,Left cTBS,Cons,Clear,57,1,0,0.561557500011986,1
7077,123,Larynx,Left cTBS,Cons,Clear,58,1,0,0.804647900018608,1
7078,123,Larynx,Left cTBS,Cons,Clear,59,3,1,0.353599900001427,1
7079,123,Larynx,Left cTBS,Cons,Clear,60,3,1,0.349042199988617,1
7080,123,Larynx,Left cTBS,Cons,Clear,61,2,1,0.429218300007051,1
7081,123,Larynx,Left cTBS,Cons,Clear,62,5,1,0.40262030001031196,1
7082,123,Larynx,Left cTBS,Cons,Clear,63,4,1,0.49391399999149105,1
7083,123,Larynx,Left cTBS,Cons,Clear,64,5,1,0.3738466000068,1
7084,123,Larynx,Left cTBS,Cons,Clear,65,3,1,0.36274020001292206,1
7085,123,Larynx,Left cTBS,Cons,Clear,66,4,1,0.399717199994484,1
7086,123,Larynx,Left cTBS,Cons,Clear,67,3,1,0.340583899989724,1
7087,123,Larynx,Left cTBS,Cons,Clear,68,1,1,0.375997399998596,1
7088,123,Larynx,Left cTBS,Cons,Clear,69,5,1,0.5976964999863411,1
7089,123,Larynx,Left cTBS,Cons,Clear,70,1,0,0.5955344999965749,1
7090,123,Larynx,Left cTBS,Cons,Clear,71,3,1,0.9628595999965909,1
7091,123,Larynx,Left cTBS,Cons,Clear,72,5,1,0.503079399990384,1
7092,123,Larynx,Left cTBS,Cons,Clear,73,3,1,0.337443900003564,1
7093,123,Larynx,Left cTBS,Cons,Clear,74,3,1,0.5953000999870711,1
7094,123,Larynx,Left cTBS,Cons,Clear,75,2,1,0.44284959998913104,1
7095,123,Larynx,Left cTBS,Cons,Clear,76,4,1,0.427312099986011,1
7096,123,Larynx,Left cTBS,Cons,Clear,77,2,1,0.49551050001173297,1
7097,123,Larynx,Left cTBS,Cons,Clear,78,4,1,0.515476800006581,1
7098,123,Larynx,Left cTBS,Cons,Clear,79,2,0,0.47950159999891206,1
7099,123,Larynx,Left cTBS,Cons,Clear,80,3,1,0.41095089999726,1
7100,123,Larynx,Left cTBS,Cons,Clear,81,5,1,0.380831099988427,1
7101,123,Larynx,Left cTBS,Cons,Clear,82,4,1,0.34187230002135,1
7102,123,Larynx,Left cTBS,Cons,Clear,83,1,1,0.32997760002035603,1
7103,123,Larynx,Left cTBS,Cons,Clear,84,2,1,0.4060636000067461,1
7104,123,Larynx,Left cTBS,Cons,Clear,85,5,1,0.340946699987398,1
7105,123,Larynx,Left cTBS,Cons,Clear,86,1,0,0.621289099974092,1
7106,123,Larynx,Left cTBS,Cons,Clear,87,3,1,0.465164499997627,1
7107,123,Larynx,Left cTBS,Cons,Clear,88,1,1,0.347415900003398,1
7108,123,Larynx,Left cTBS,Cons,Clear,89,3,1,0.427343699993799,1
7109,123,Larynx,Left cTBS,Cons,Clear,90,1,0,0.571961599984206,1
7110,123,Larynx,Left cTBS,Cons,Clear,91,4,1,0.361542700004065,1
7111,123,Larynx,Left cTBS,Cons,Clear,92,5,1,0.40045300000929296,1
7112,123,Larynx,Left cTBS,Cons,Clear,93,4,1,0.518371499987552,1
7113,123,Larynx,Left cTBS,Cons,Clear,94,4,1,0.49910320001072295,1
7114,123,Larynx,Left cTBS,Cons,Clear,95,5,1,0.404900199995609,1
7115,123,Larynx,Left cTBS,Cons,Clear,96,2,0,0.464618099998916,1
7116,123,Larynx,Left cTBS,Cons,Clear,97,2,1,0.348594599985518,1
7117,123,Larynx,Left cTBS,Cons,Clear,98,5,1,0.29046190000371996,1
7118,123,Larynx,Left cTBS,Cons,Clear,99,3,1,0.324094500014326,1
7119,123,Larynx,Left cTBS,Cons,Clear,100,3,1,0.43493039999157207,1
7120,123,Larynx,Left cTBS,Cons,Clear,101,4,1,0.397641099989414,1
7121,123,Larynx,Left cTBS,Cons,Clear,102,2,1,0.407528899988392,1
7122,123,Larynx,Left cTBS,Cons,Clear,103,2,1,0.78782970001339,1
7123,123,Larynx,Left cTBS,Cons,Clear,104,1,0,0.645246999978554,1
7124,123,Larynx,Left cTBS,Cons,Clear,105,4,1,0.381185899983393,1
7125,123,Larynx,Left cTBS,Cons,Clear,106,3,1,0.32443180002155697,1
7126,123,Larynx,Left cTBS,Cons,Clear,107,3,1,0.330402400024468,1
7127,123,Larynx,Left cTBS,Cons,Clear,108,3,1,0.357575799978804,1
7128,123,Larynx,Left cTBS,Cons,Clear,109,4,1,0.41124069999204904,1
7129,123,Larynx,Left cTBS,Cons,Clear,110,5,1,0.499971999990521,1
7130,123,Larynx,Left cTBS,Cons,Clear,111,2,0,0.543306100007612,1
7131,123,Larynx,Left cTBS,Cons,Clear,112,2,1,0.41820960000040897,1
7132,123,Larynx,Left cTBS,Cons,Clear,113,3,1,0.375247999996645,1
7133,123,Larynx,Left cTBS,Cons,Clear,114,3,1,0.22230349999154,1
7134,123,Larynx,Left cTBS,Cons,Clear,115,3,1,0.311526899982709,1
7135,123,Larynx,Left cTBS,Cons,Clear,116,1,1,0.24477869999827803,1
7136,123,Larynx,Left cTBS,Cons,Clear,117,4,1,0.5639941999979781,1
7137,123,Larynx,Left cTBS,Cons,Clear,118,2,0,0.6925526999984871,1
7138,123,Larynx,Left cTBS,Cons,Clear,119,4,1,0.367650400003186,1
7139,123,Larynx,Left cTBS,Cons,Clear,120,2,1,0.29615380000905106,1
7140,123,Larynx,Left cTBS,Cons,Clear,121,3,1,0.287923299998511,1
7141,123,Larynx,Left cTBS,Cons,Clear,122,2,1,0.175111699994886,1
7142,123,Larynx,Left cTBS,Cons,Clear,123,5,1,0.280343299993547,1
7143,123,Larynx,Left cTBS,Cons,Clear,124,3,1,0.345579299988458,1
7144,123,Larynx,Left cTBS,Cons,Clear,125,5,1,0.36907459999201797,1
7145,123,Larynx,Left cTBS,Cons,Clear,126,4,1,0.35142019999329904,1
7146,123,Larynx,Left cTBS,Cons,Clear,127,4,1,0.36580329999560496,1
7147,123,Larynx,Left cTBS,Cons,Clear,128,1,1,0.329787899972871,1
7148,123,Larynx,Left cTBS,Cons,Clear,129,3,1,1.0119770000164898,1
7149,123,Larynx,Left cTBS,Cons,Clear,130,5,1,0.553791899990756,1
7150,123,Larynx,Left cTBS,Cons,Clear,131,4,1,0.38376399999833705,1
7151,123,Larynx,Left cTBS,Cons,Clear,132,2,0,0.49082149998867,1
7152,123,Larynx,Left cTBS,Cons,Clear,133,3,1,0.45068909999099604,1
7153,123,Larynx,Left cTBS,Cons,Clear,134,2,1,0.339505699987058,1
7154,123,Larynx,Left cTBS,Cons,Clear,135,5,1,0.343204500008142,1
7155,123,Larynx,Left cTBS,Cons,Clear,136,3,1,0.46142109998618297,1
7156,123,Larynx,Left cTBS,Cons,Clear,137,3,1,0.389988399983849,1
7157,123,Larynx,Left cTBS,Cons,Clear,138,2,0,0.5274305000202729,1
7158,123,Larynx,Left cTBS,Cons,Clear,139,1,1,0.33555029999115504,1
7159,123,Larynx,Left cTBS,Cons,Clear,140,4,1,0.40472960000624897,1
7160,123,Larynx,Left cTBS,Cons,Clear,141,1,1,0.36775430000852793,1
7161,123,Larynx,Left cTBS,Cons,Clear,142,3,1,0.508283100003609,1
7162,123,Larynx,Left cTBS,Cons,Clear,143,4,1,0.5223155999847221,1
7163,123,Larynx,Left cTBS,Cons,Clear,144,4,1,0.556217700010166,1
7164,123,Larynx,Left cTBS,Cons,Clear,145,1,0,0.435267699998803,1
7165,123,Larynx,Left cTBS,Cons,Clear,146,2,1,0.59601200002362,1
7166,123,Larynx,Left cTBS,Cons,Clear,147,3,1,0.438619399996242,1
7167,123,Larynx,Left cTBS,Cons,Clear,148,5,1,0.515631799993571,1
7168,123,Larynx,Left cTBS,Cons,Clear,149,4,1,0.40215499998885207,1
7169,123,Larynx,Left cTBS,Cons,Clear,150,5,1,0.603075499995612,1
7170,123,Larynx,Left cTBS,Cons,Clear,151,3,1,0.527905700000701,1
7171,123,Larynx,Left cTBS,Cons,Clear,152,2,1,0.567319299996598,1
7172,123,Larynx,Left cTBS,Cons,Clear,153,3,1,0.46868559997528797,1
7173,123,Larynx,Left cTBS,Cons,Clear,154,3,1,0.50112299999455,1
7174,123,Larynx,Left cTBS,Cons,Clear,155,1,0,0.588829099986469,1
7175,123,Larynx,Left cTBS,Cons,Clear,156,1,0,0.7787853000045291,1
8892,123,Larynx,Sham,Cons,Clear,1,3,0,0.663217500085011,1
8893,123,Larynx,Sham,Cons,Clear,2,4,1,0.47877150005660996,1
8894,123,Larynx,Sham,Cons,Clear,3,2,1,0.609148100018501,1
8895,123,Larynx,Sham,Cons,Clear,4,5,1,0.41554849990643605,1
8896,123,Larynx,Sham,Cons,Clear,5,2,0,0.6487003999063751,1
8897,123,Larynx,Sham,Cons,Clear,6,3,1,0.541122099966742,1
8898,123,Larynx,Sham,Cons,Clear,7,2,1,0.40780780010391,1
8899,123,Larynx,Sham,Cons,Clear,8,5,1,0.36240109999198494,1
8900,123,Larynx,Sham,Cons,Clear,9,1,1,0.38000699994154297,1
8901,123,Larynx,Sham,Cons,Clear,10,3,1,0.48610830004327,1
8902,123,Larynx,Sham,Cons,Clear,11,4,1,0.43499349988997,1
8903,123,Larynx,Sham,Cons,Clear,12,3,1,0.414369500009343,1
8904,123,Larynx,Sham,Cons,Clear,13,5,1,0.496805800008588,1
8905,123,Larynx,Sham,Cons,Clear,14,4,1,0.45130209997296294,1
8906,123,Larynx,Sham,Cons,Clear,15,4,1,0.440384900080971,1
8907,123,Larynx,Sham,Cons,Clear,16,2,1,0.4033231000648811,1
8908,123,Larynx,Sham,Cons,Clear,17,4,1,0.569533100002445,1
8909,123,Larynx,Sham,Cons,Clear,18,3,1,0.4718284000409771,1
8910,123,Larynx,Sham,Cons,Clear,19,1,0,0.511027700034902,1
8911,123,Larynx,Sham,Cons,Clear,20,2,1,0.37663199997041397,1
8912,123,Larynx,Sham,Cons,Clear,21,3,1,0.497107499977574,1
8913,123,Larynx,Sham,Cons,Clear,22,5,1,0.390584000037052,1
8914,123,Larynx,Sham,Cons,Clear,23,4,1,0.433863999904133,1
8915,123,Larynx,Sham,Cons,Clear,24,1,0,0.528785500093363,1
8916,123,Larynx,Sham,Cons,Clear,25,5,1,0.47837350005284,1
8917,123,Larynx,Sham,Cons,Clear,26,2,1,0.346135700005107,1
8918,123,Larynx,Sham,Cons,Clear,27,3,1,0.5457629999145871,1
8919,123,Larynx,Sham,Cons,Clear,28,1,0,0.769922200008295,1
8920,123,Larynx,Sham,Cons,Clear,29,4,1,0.879807899938896,1
8921,123,Larynx,Sham,Cons,Clear,30,1,0,0.518930500023998,1
8922,123,Larynx,Sham,Cons,Clear,31,1,0,0.565632299985737,1
8923,123,Larynx,Sham,Cons,Clear,32,3,1,0.468460199888796,1
8924,123,Larynx,Sham,Cons,Clear,33,5,1,0.36361299990676293,1
8925,123,Larynx,Sham,Cons,Clear,34,2,0,0.536855999962427,1
8926,123,Larynx,Sham,Cons,Clear,35,4,1,0.3918847000459211,1
8927,123,Larynx,Sham,Cons,Clear,36,2,1,0.449209999991581,1
8928,123,Larynx,Sham,Cons,Clear,37,3,1,0.39595200004987396,1
8929,123,Larynx,Sham,Cons,Clear,38,3,1,0.34959380002692303,1
8930,123,Larynx,Sham,Cons,Clear,39,3,1,0.41465489997062804,1
8931,123,Larynx,Sham,Cons,Clear,40,2,1,0.6211153999902309,1
8932,123,Larynx,Sham,Cons,Clear,41,4,1,0.45984200004022596,1
8933,123,Larynx,Sham,Cons,Clear,42,4,1,0.5660029000137,1
8934,123,Larynx,Sham,Cons,Clear,43,2,1,0.5688358999323101,1
8935,123,Larynx,Sham,Cons,Clear,44,3,1,0.605189599911682,1
8936,123,Larynx,Sham,Cons,Clear,45,3,1,0.640283000073396,1
8937,123,Larynx,Sham,Cons,Clear,46,1,0,0.5601390999509019,1
8938,123,Larynx,Sham,Cons,Clear,47,4,1,0.684137200005353,1
8939,123,Larynx,Sham,Cons,Clear,48,3,1,0.377128800028004,1
8940,123,Larynx,Sham,Cons,Clear,49,2,1,0.38026890007313296,1
8941,123,Larynx,Sham,Cons,Clear,50,5,1,0.36041409999597795,1
8942,123,Larynx,Sham,Cons,Clear,51,1,0,0.608957699965686,1
8943,123,Larynx,Sham,Cons,Clear,52,5,1,0.37292550003621705,1
8944,123,Larynx,Sham,Cons,Clear,53,4,1,0.32657510007265994,1
8945,123,Larynx,Sham,Cons,Clear,54,3,1,0.260311299934983,1
8946,123,Larynx,Sham,Cons,Clear,55,1,1,0.276063999976031,1
8947,123,Larynx,Sham,Cons,Clear,56,5,1,0.43088080000598,1
8948,123,Larynx,Sham,Cons,Clear,57,3,1,0.37724199995864205,1
8949,123,Larynx,Sham,Cons,Clear,58,4,1,0.430339899961837,1
8950,123,Larynx,Sham,Cons,Clear,59,3,1,0.6187391000567,1
8951,123,Larynx,Sham,Cons,Clear,60,2,1,0.38113069999963,1
8952,123,Larynx,Sham,Cons,Clear,61,3,1,0.556596100097522,1
8953,123,Larynx,Sham,Cons,Clear,62,3,1,0.48240059998352103,1
8954,123,Larynx,Sham,Cons,Clear,63,2,1,0.43207430001348296,1
8955,123,Larynx,Sham,Cons,Clear,64,5,1,0.5819381000474101,1
8956,123,Larynx,Sham,Cons,Clear,65,5,1,0.36659360001795,1
8957,123,Larynx,Sham,Cons,Clear,66,1,0,0.6017624000087379,1
8958,123,Larynx,Sham,Cons,Clear,67,3,1,0.641593700041994,1
8959,123,Larynx,Sham,Cons,Clear,68,4,1,0.459608100005426,1
8960,123,Larynx,Sham,Cons,Clear,69,2,0,0.519737599999644,1
8961,123,Larynx,Sham,Cons,Clear,70,3,1,0.337890699971467,1
8962,123,Larynx,Sham,Cons,Clear,71,3,1,0.516521199955605,1
8963,123,Larynx,Sham,Cons,Clear,72,2,0,1.05420730006881,1
8964,123,Larynx,Sham,Cons,Clear,73,1,0,0.6681480000261221,1
8965,123,Larynx,Sham,Cons,Clear,74,4,1,0.5089319999096921,1
8966,123,Larynx,Sham,Cons,Clear,75,5,1,0.5657353999558841,1
8967,123,Larynx,Sham,Cons,Clear,76,1,0,0.569870700011961,1
8968,123,Larynx,Sham,Cons,Clear,77,2,0,0.7914224999258291,1
8969,123,Larynx,Sham,Cons,Clear,78,4,1,0.381552300066687,1
8970,123,Larynx,Sham,Cons,Clear,79,3,1,0.513077400042675,1
8971,123,Larynx,Sham,Cons,Clear,80,4,1,0.43070819997228704,1
8972,123,Larynx,Sham,Cons,Clear,81,2,1,0.706666799960658,1
8973,123,Larynx,Sham,Cons,Clear,82,1,0,0.630999300046824,1
8974,123,Larynx,Sham,Cons,Clear,83,1,0,0.990472700097598,1
8975,123,Larynx,Sham,Cons,Clear,84,3,1,0.713512199930847,1
8976,123,Larynx,Sham,Cons,Clear,85,3,1,0.434351500007324,1
8977,123,Larynx,Sham,Cons,Clear,86,5,1,0.45247210003435606,1
8978,123,Larynx,Sham,Cons,Clear,87,5,1,0.404435700038448,1
8979,123,Larynx,Sham,Cons,Clear,88,3,1,0.297924699960276,1
8980,123,Larynx,Sham,Cons,Clear,89,3,1,0.41651110001839703,1
8981,123,Larynx,Sham,Cons,Clear,90,3,1,0.48808020004071295,1
8982,123,Larynx,Sham,Cons,Clear,91,4,1,0.627907799906097,1
8983,123,Larynx,Sham,Cons,Clear,92,2,1,0.8904097999911759,1
8984,123,Larynx,Sham,Cons,Clear,93,3,1,0.5060490999603641,1
8985,123,Larynx,Sham,Cons,Clear,94,4,1,0.478531299973838,1
8986,123,Larynx,Sham,Cons,Clear,95,5,1,0.4843150000087921,1
8987,123,Larynx,Sham,Cons,Clear,96,4,1,0.503425500006415,1
8988,123,Larynx,Sham,Cons,Clear,97,5,1,0.5517540000146249,1
8989,123,Larynx,Sham,Cons,Clear,98,3,1,0.504464800003916,1
8990,123,Larynx,Sham,Cons,Clear,99,2,0,0.606345599982888,1
8991,123,Larynx,Sham,Cons,Clear,100,3,1,0.431687099975534,1
8992,123,Larynx,Sham,Cons,Clear,101,4,1,0.33889219991397096,1
8993,123,Larynx,Sham,Cons,Clear,102,1,0,0.565093000070192,1
8994,123,Larynx,Sham,Cons,Clear,103,1,0,0.576436599949375,1
8995,123,Larynx,Sham,Cons,Clear,104,2,1,0.5595745999598879,1
8996,123,Larynx,Sham,Cons,Clear,105,2,0,0.752073299954645,1
8997,123,Larynx,Sham,Cons,Clear,106,5,1,0.46695589995943004,1
8998,123,Larynx,Sham,Cons,Clear,107,4,1,0.38407859997823796,1
8999,123,Larynx,Sham,Cons,Clear,108,2,1,0.37800790008623203,1
9000,123,Larynx,Sham,Cons,Clear,109,4,1,0.39161549997516,1
9001,123,Larynx,Sham,Cons,Clear,110,2,1,0.471789199975319,1
9002,123,Larynx,Sham,Cons,Clear,111,3,1,0.643698600004427,1
9003,123,Larynx,Sham,Cons,Clear,112,1,0,0.58779689995572,1
9004,123,Larynx,Sham,Cons,Clear,113,1,1,0.40108599991071997,1
9005,123,Larynx,Sham,Cons,Clear,114,3,1,0.41328639991115795,1
9006,123,Larynx,Sham,Cons,Clear,115,4,1,0.45347910001874,1
9007,123,Larynx,Sham,Cons,Clear,116,2,0,0.748297899961472,1
9008,123,Larynx,Sham,Cons,Clear,117,5,1,0.4395337000023571,1
9009,123,Larynx,Sham,Cons,Clear,118,3,1,0.35312450001947604,1
9010,123,Larynx,Sham,Cons,Clear,119,3,1,0.37298999994527504,1
9011,123,Larynx,Sham,Cons,Clear,120,2,1,0.34043410001322605,1
9012,123,Larynx,Sham,Cons,Clear,121,1,1,0.449144699960016,1
9013,123,Larynx,Sham,Cons,Clear,122,3,1,0.622139299986884,1
9014,123,Larynx,Sham,Cons,Clear,123,3,1,0.476697799982503,1
9015,123,Larynx,Sham,Cons,Clear,124,2,1,0.448133099940605,1
9016,123,Larynx,Sham,Cons,Clear,125,1,0,0.6261199999134991,1
9017,123,Larynx,Sham,Cons,Clear,126,4,1,0.51335789996665,1
9018,123,Larynx,Sham,Cons,Clear,127,4,1,0.49332090001553297,1
9019,123,Larynx,Sham,Cons,Clear,128,5,1,0.355879899929278,1
9020,123,Larynx,Sham,Cons,Clear,129,5,1,0.44639309996273396,1
9021,123,Larynx,Sham,Cons,Clear,130,5,1,0.38051260006614,1
9022,123,Larynx,Sham,Cons,Clear,131,3,1,0.5398303999099879,1
9023,123,Larynx,Sham,Cons,Clear,132,1,0,0.575281600002199,1
9024,123,Larynx,Sham,Cons,Clear,133,1,0,0.6510298000648621,1
9025,123,Larynx,Sham,Cons,Clear,134,2,0,0.6793010999681429,1
9026,123,Larynx,Sham,Cons,Clear,135,2,1,0.425472900038585,1
9027,123,Larynx,Sham,Cons,Clear,136,2,1,0.349906599964015,1
9028,123,Larynx,Sham,Cons,Clear,137,5,1,0.4122769000241529,1
9029,123,Larynx,Sham,Cons,Clear,138,5,1,0.37706340011209205,1
9030,123,Larynx,Sham,Cons,Clear,139,4,1,0.443844499997795,1
9031,123,Larynx,Sham,Cons,Clear,140,4,1,0.515743599971756,1
9032,123,Larynx,Sham,Cons,Clear,141,2,0,0.703474100097083,1
9033,123,Larynx,Sham,Cons,Clear,142,2,1,0.38120659999549394,1
9034,123,Larynx,Sham,Cons,Clear,143,4,1,0.45808100001886504,1
9035,123,Larynx,Sham,Cons,Clear,144,5,1,0.36442840006202504,1
9036,123,Larynx,Sham,Cons,Clear,145,3,1,0.387875200016424,1
9037,123,Larynx,Sham,Cons,Clear,146,3,1,0.35562679998111,1
9038,123,Larynx,Sham,Cons,Clear,147,3,1,0.319056899985299,1
9039,123,Larynx,Sham,Cons,Clear,148,3,1,0.40138259995728703,1
9040,123,Larynx,Sham,Cons,Clear,149,3,1,0.342998999985866,1
9041,123,Larynx,Sham,Cons,Clear,150,4,1,0.348280899925157,1
9042,123,Larynx,Sham,Cons,Clear,151,4,1,0.34149350004736306,1
9043,123,Larynx,Sham,Cons,Clear,152,4,1,0.35459070000797493,1
9044,123,Larynx,Sham,Cons,Clear,153,1,0,0.549149800091982,1
9045,123,Larynx,Sham,Cons,Clear,154,3,1,0.657464199932292,1
9046,123,Larynx,Sham,Cons,Clear,155,1,1,0.358980800025165,1
9047,123,Larynx,Sham,Cons,Clear,156,2,0,0.6610094999196011,1
10140,139,Larynx,Left cTBS,Cons,Clear,1,1,0,0.849432600021828,1
10141,139,Larynx,Left cTBS,Cons,Clear,2,3,1,0.5356373999966311,1
10142,139,Larynx,Left cTBS,Cons,Clear,3,3,1,0.59510830004001,1
10143,139,Larynx,Left cTBS,Cons,Clear,4,1,0,0.48244430002523603,1
10144,139,Larynx,Left cTBS,Cons,Clear,5,3,1,0.6303488999838011,1
10145,139,Larynx,Left cTBS,Cons,Clear,6,2,0,0.753476800047792,1
10146,139,Larynx,Left cTBS,Cons,Clear,7,5,1,0.5810054000467061,1
10147,139,Larynx,Left cTBS,Cons,Clear,8,3,1,0.609054000000469,1
10148,139,Larynx,Left cTBS,Cons,Clear,9,2,0,0.52246790000936,1
10149,139,Larynx,Left cTBS,Cons,Clear,10,1,0,0.47283210000023207,1
10150,139,Larynx,Left cTBS,Cons,Clear,11,4,1,0.458118200011086,1
10151,139,Larynx,Left cTBS,Cons,Clear,12,5,1,0.6299345999723299,1
10152,139,Larynx,Left cTBS,Cons,Clear,13,4,1,0.920176300045569,1
10153,139,Larynx,Left cTBS,Cons,Clear,14,3,1,0.672773999976926,1
10154,139,Larynx,Left cTBS,Cons,Clear,15,2,0,0.5685700000030921,1
10155,139,Larynx,Left cTBS,Cons,Clear,16,5,1,0.7794016000116241,1
10156,139,Larynx,Left cTBS,Cons,Clear,17,4,1,0.6191380000091159,1
10157,139,Larynx,Left cTBS,Cons,Clear,18,2,0,0.600427600031253,1
10158,139,Larynx,Left cTBS,Cons,Clear,19,3,1,0.760471800051164,1
10159,139,Larynx,Left cTBS,Cons,Clear,20,2,0,1.24107319995528,1
10160,139,Larynx,Left cTBS,Cons,Clear,21,1,0,0.8874700000160369,1
10161,139,Larynx,Left cTBS,Cons,Clear,22,2,1,0.65301469998667,1
10162,139,Larynx,Left cTBS,Cons,Clear,23,4,1,0.626208600006066,1
10163,139,Larynx,Left cTBS,Cons,Clear,24,1,0,0.5333158000139521,1
10164,139,Larynx,Left cTBS,Cons,Clear,25,4,1,0.9349010000005359,1
10165,139,Larynx,Left cTBS,Cons,Clear,26,4,1,0.7813582000089809,1
10166,139,Larynx,Left cTBS,Cons,Clear,27,2,0,0.6380667000194079,1
10167,139,Larynx,Left cTBS,Cons,Clear,28,3,1,0.9068654000293459,1
10168,139,Larynx,Left cTBS,Cons,Clear,29,5,1,0.7063127000001259,1
10169,139,Larynx,Left cTBS,Cons,Clear,30,2,0,0.509721900045406,1
10170,139,Larynx,Left cTBS,Cons,Clear,31,5,1,0.647048499959055,1
10171,139,Larynx,Left cTBS,Cons,Clear,32,3,1,0.669244799995795,1
10172,139,Larynx,Left cTBS,Cons,Clear,33,5,1,0.654007100034505,1
10173,139,Larynx,Left cTBS,Cons,Clear,34,3,0,0.643300499999896,1
10174,139,Larynx,Left cTBS,Cons,Clear,35,4,1,0.6619557000231,1
10175,139,Larynx,Left cTBS,Cons,Clear,36,4,1,0.69337330001872,1
10176,139,Larynx,Left cTBS,Cons,Clear,37,3,0,1.05915099999402,1
10177,139,Larynx,Left cTBS,Cons,Clear,38,1,0,0.6764341000234712,1
10178,139,Larynx,Left cTBS,Cons,Clear,39,3,1,0.53847070003394,1
10179,139,Larynx,Left cTBS,Cons,Clear,40,2,0,1.3227721999865,1
10180,139,Larynx,Left cTBS,Cons,Clear,41,3,1,0.857018500042614,1
10181,139,Larynx,Left cTBS,Cons,Clear,42,1,0,0.702826199994888,1
10182,139,Larynx,Left cTBS,Cons,Clear,43,5,1,0.8856009000446651,1
10183,139,Larynx,Left cTBS,Cons,Clear,44,5,1,0.933515099983197,1
10184,139,Larynx,Left cTBS,Cons,Clear,45,2,0,0.91741249995539,1
10185,139,Larynx,Left cTBS,Cons,Clear,46,2,0,1.04411850002361,1
10186,139,Larynx,Left cTBS,Cons,Clear,47,4,1,0.646674200019334,1
10187,139,Larynx,Left cTBS,Cons,Clear,48,4,1,0.632108299992979,1
10188,139,Larynx,Left cTBS,Cons,Clear,49,2,0,0.646464799996465,1
10189,139,Larynx,Left cTBS,Cons,Clear,50,2,0,0.56991449999623,1
10190,139,Larynx,Left cTBS,Cons,Clear,51,4,1,0.6889052999904379,1
10191,139,Larynx,Left cTBS,Cons,Clear,52,3,1,0.9063155999756421,1
10192,139,Larynx,Left cTBS,Cons,Clear,53,1,0,0.5905333000118841,1
10193,139,Larynx,Left cTBS,Cons,Clear,54,2,0,0.940109999966808,1
10194,139,Larynx,Left cTBS,Cons,Clear,55,3,1,0.897934500011615,1
10195,139,Larynx,Left cTBS,Cons,Clear,56,3,1,0.8968911999836559,1
10196,139,Larynx,Left cTBS,Cons,Clear,57,4,0,1.1534959000418898,1
10197,139,Larynx,Left cTBS,Cons,Clear,58,3,1,0.212697900016792,1
10198,139,Larynx,Left cTBS,Cons,Clear,59,4,1,0.9585833000019192,1
10199,139,Larynx,Left cTBS,Cons,Clear,60,2,0,0.591830499994103,1
10200,139,Larynx,Left cTBS,Cons,Clear,61,1,0,1.1056585999904198,1
10201,139,Larynx,Left cTBS,Cons,Clear,62,3,1,1.16403129999526,1
10202,139,Larynx,Left cTBS,Cons,Clear,63,3,1,0.719879999989644,1
10203,139,Larynx,Left cTBS,Cons,Clear,64,5,1,0.9507870000088591,1
10204,139,Larynx,Left cTBS,Cons,Clear,65,5,1,0.7241487000137571,1
10205,139,Larynx,Left cTBS,Cons,Clear,66,5,1,0.85373749997234,1
10206,139,Larynx,Left cTBS,Cons,Clear,67,1,0,0.69534500001464,1
10207,139,Larynx,Left cTBS,Cons,Clear,68,4,1,0.901843599975109,1
10208,139,Larynx,Left cTBS,Cons,Clear,69,3,0,1.08483160001924,1
10209,139,Larynx,Left cTBS,Cons,Clear,70,1,0,0.762218600022607,1
10210,139,Larynx,Left cTBS,Cons,Clear,71,3,1,0.476513999979943,1
10211,139,Larynx,Left cTBS,Cons,Clear,72,1,0,0.7466345999855551,1
10212,139,Larynx,Left cTBS,Cons,Clear,73,2,0,0.9042605999857192,1
10213,139,Larynx,Left cTBS,Cons,Clear,74,4,1,0.506502099975478,1
10214,139,Larynx,Left cTBS,Cons,Clear,75,5,1,0.635934500023723,1
10215,139,Larynx,Left cTBS,Cons,Clear,76,3,1,0.853662299981806,1
10216,139,Larynx,Left cTBS,Cons,Clear,77,3,1,0.825606899976265,1
10217,139,Larynx,Left cTBS,Cons,Clear,78,4,1,0.7180652999668381,1
10218,139,Larynx,Left cTBS,Cons,Clear,79,2,0,0.620360000000801,1
10219,139,Larynx,Left cTBS,Cons,Clear,80,2,0,0.575166900001932,1
10220,139,Larynx,Left cTBS,Cons,Clear,81,5,1,0.49921690003247904,1
10221,139,Larynx,Left cTBS,Cons,Clear,82,5,1,0.690204199985601,1
10222,139,Larynx,Left cTBS,Cons,Clear,83,5,1,0.7237138000200501,1
10223,139,Larynx,Left cTBS,Cons,Clear,84,3,0,1.36776069999905,1
10224,139,Larynx,Left cTBS,Cons,Clear,85,1,0,0.65411210001912,1
10225,139,Larynx,Left cTBS,Cons,Clear,86,5,1,0.535176500037778,1
10226,139,Larynx,Left cTBS,Cons,Clear,87,3,0,0.7629650000017141,1
10227,139,Larynx,Left cTBS,Cons,Clear,88,3,1,0.7832320000161421,1
10228,139,Larynx,Left cTBS,Cons,Clear,89,4,1,0.6450763999600889,1
10229,139,Larynx,Left cTBS,Cons,Clear,90,4,1,0.6949559000204321,1
10230,139,Larynx,Left cTBS,Cons,Clear,91,4,1,0.721114000014495,1
10231,139,Larynx,Left cTBS,Cons,Clear,92,2,0,0.631494800036307,1
10232,139,Larynx,Left cTBS,Cons,Clear,93,4,1,0.658893499989063,1
10233,139,Larynx,Left cTBS,Cons,Clear,94,1,0,0.768592800013721,1
10234,139,Larynx,Left cTBS,Cons,Clear,95,1,0,0.711057899985462,1
10235,139,Larynx,Left cTBS,Cons,Clear,96,1,0,0.635624999995343,1
10236,139,Larynx,Left cTBS,Cons,Clear,97,4,1,0.552781100035645,1
10237,139,Larynx,Left cTBS,Cons,Clear,98,4,1,0.532640100049321,1
10238,139,Larynx,Left cTBS,Cons,Clear,99,3,1,0.6803871999727559,1
10239,139,Larynx,Left cTBS,Cons,Clear,100,3,1,0.7446651000063871,1
10240,139,Larynx,Left cTBS,Cons,Clear,101,3,1,0.646819700021297,1
10241,139,Larynx,Left cTBS,Cons,Clear,102,3,1,0.629966999986209,1
10242,139,Larynx,Left cTBS,Cons,Clear,103,1,0,0.5717766000307171,1
10243,139,Larynx,Left cTBS,Cons,Clear,104,3,0,0.653151299979072,1
10244,139,Larynx,Left cTBS,Cons,Clear,105,4,1,0.635209999978542,1
10245,139,Larynx,Left cTBS,Cons,Clear,106,2,0,0.630825100000948,1
10246,139,Larynx,Left cTBS,Cons,Clear,107,2,0,0.803323799977079,1
10247,139,Larynx,Left cTBS,Cons,Clear,108,4,1,0.899148099997547,1
10248,139,Larynx,Left cTBS,Cons,Clear,109,2,0,1.0770349999656899,1
10249,139,Larynx,Left cTBS,Cons,Clear,110,2,0,1.04692950000754,1
10250,139,Larynx,Left cTBS,Cons,Clear,111,3,0,0.8040956999757328,1
10251,139,Larynx,Left cTBS,Cons,Clear,112,3,1,0.6402158000273629,1
10252,139,Larynx,Left cTBS,Cons,Clear,113,3,1,0.969179000006989,1
10253,139,Larynx,Left cTBS,Cons,Clear,114,5,1,0.687409100006334,1
10254,139,Larynx,Left cTBS,Cons,Clear,115,2,0,0.7319667999981899,1
10255,139,Larynx,Left cTBS,Cons,Clear,116,5,1,1.03732970001874,1
10256,139,Larynx,Left cTBS,Cons,Clear,117,1,0,0.6270967000164089,1
10257,139,Larynx,Left cTBS,Cons,Clear,118,5,1,0.965413399972022,1
10258,139,Larynx,Left cTBS,Cons,Clear,119,4,1,0.914408899960108,1
10259,139,Larynx,Left cTBS,Cons,Clear,120,2,0,0.8831275000120509,1
10260,139,Larynx,Left cTBS,Cons,Clear,121,2,0,0.738386000040919,1
10261,139,Larynx,Left cTBS,Cons,Clear,122,4,1,1.4305609000148298,1
10262,139,Larynx,Left cTBS,Cons,Clear,123,1,0,0.613399700028822,1
10263,139,Larynx,Left cTBS,Cons,Clear,124,3,0,1.1745095000369499,1
10264,139,Larynx,Left cTBS,Cons,Clear,125,5,1,0.628450800024439,1
10265,139,Larynx,Left cTBS,Cons,Clear,126,3,1,1.04046340001514,1
10266,139,Larynx,Left cTBS,Cons,Clear,127,4,1,0.955662599997595,1
10267,139,Larynx,Left cTBS,Cons,Clear,128,4,1,0.975859999947716,1
10268,139,Larynx,Left cTBS,Cons,Clear,129,3,1,0.817162899998948,1
10269,139,Larynx,Left cTBS,Cons,Clear,130,4,1,0.643079400004353,1
10270,139,Larynx,Left cTBS,Cons,Clear,131,3,1,1.02357479999773,1
10271,139,Larynx,Left cTBS,Cons,Clear,132,3,1,0.7044434000272299,1
10272,139,Larynx,Left cTBS,Cons,Clear,133,3,1,0.907104100042488,1
10273,139,Larynx,Left cTBS,Cons,Clear,134,2,0,0.932609400013462,1
10274,139,Larynx,Left cTBS,Cons,Clear,135,1,0,0.710169299971312,1
10275,139,Larynx,Left cTBS,Cons,Clear,136,5,1,1.30333399999654,1
10276,139,Larynx,Left cTBS,Cons,Clear,137,5,1,1.2564383999561002,1
10277,139,Larynx,Left cTBS,Cons,Clear,138,1,0,0.688092899974436,1
10278,139,Larynx,Left cTBS,Cons,Clear,139,2,0,0.76538299996173,1
10279,139,Larynx,Left cTBS,Cons,Clear,140,4,1,0.793996999971569,1
10280,139,Larynx,Left cTBS,Cons,Clear,141,3,1,0.693885500018951,1
10281,139,Larynx,Left cTBS,Cons,Clear,142,2,0,0.507520900049713,1
10282,139,Larynx,Left cTBS,Cons,Clear,143,1,0,0.526054700021632,1
10283,139,Larynx,Left cTBS,Cons,Clear,144,1,0,0.5497185999993229,1
10284,139,Larynx,Left cTBS,Cons,Clear,145,1,0,0.658970099990256,1
10285,139,Larynx,Left cTBS,Cons,Clear,146,2,0,0.874305200006347,1
10286,139,Larynx,Left cTBS,Cons,Clear,147,5,1,0.7967404000228271,1
10287,139,Larynx,Left cTBS,Cons,Clear,148,4,1,0.906361400033347,1
10288,139,Larynx,Left cTBS,Cons,Clear,149,4,1,1.14486560004298,1
10289,139,Larynx,Left cTBS,Cons,Clear,150,5,1,1.24955919996137,1
10290,139,Larynx,Left cTBS,Cons,Clear,151,3,0,1.5923369000083798,1
10291,139,Larynx,Left cTBS,Cons,Clear,152,3,1,0.579807600006461,1
10292,139,Larynx,Left cTBS,Cons,Clear,153,2,1,0.646058699989226,1
10293,139,Larynx,Left cTBS,Cons,Clear,154,3,1,0.652567200013436,1
10294,139,Larynx,Left cTBS,Cons,Clear,155,2,0,0.622052500024438,1
10295,139,Larynx,Left cTBS,Cons,Clear,156,3,1,0.586810000007972,1
12012,139,Larynx,Sham,Cons,Clear,1,3,1,0.968329900002573,1
12013,139,Larynx,Sham,Cons,Clear,2,4,1,0.601398500002688,1
12014,139,Larynx,Sham,Cons,Clear,3,2,0,0.7246889000016379,1
12015,139,Larynx,Sham,Cons,Clear,4,5,1,0.528023799997754,1
12016,139,Larynx,Sham,Cons,Clear,5,2,0,0.524122599999828,1
12017,139,Larynx,Sham,Cons,Clear,6,3,1,0.53264240000135,1
12018,139,Larynx,Sham,Cons,Clear,7,2,0,0.805061099999875,1
12019,139,Larynx,Sham,Cons,Clear,8,5,1,0.552242999998271,1
12020,139,Larynx,Sham,Cons,Clear,9,1,0,0.654955399993923,1
12021,139,Larynx,Sham,Cons,Clear,10,3,1,0.602785699993547,1
12022,139,Larynx,Sham,Cons,Clear,11,4,1,0.545939299998281,1
12023,139,Larynx,Sham,Cons,Clear,12,3,1,0.60819420000189,1
12024,139,Larynx,Sham,Cons,Clear,13,5,1,0.8143467999980201,1
12025,139,Larynx,Sham,Cons,Clear,14,4,1,0.5928856000027739,1
12026,139,Larynx,Sham,Cons,Clear,15,4,1,0.5571465000029999,1
12027,139,Larynx,Sham,Cons,Clear,16,2,0,0.556982399997651,1
12028,139,Larynx,Sham,Cons,Clear,17,4,1,0.559736800001701,1
12029,139,Larynx,Sham,Cons,Clear,18,3,1,0.62266030000319,1
12030,139,Larynx,Sham,Cons,Clear,19,1,0,0.6694419999985259,1
12031,139,Larynx,Sham,Cons,Clear,20,2,0,0.584172700000636,1
12032,139,Larynx,Sham,Cons,Clear,21,3,0,0.88652309999452,1
12033,139,Larynx,Sham,Cons,Clear,22,5,1,0.48325900000054406,1
12034,139,Larynx,Sham,Cons,Clear,23,4,1,0.4426711000051,1
12035,139,Larynx,Sham,Cons,Clear,24,1,0,0.560408199999074,1
12036,139,Larynx,Sham,Cons,Clear,25,5,1,0.609654899999441,1
12037,139,Larynx,Sham,Cons,Clear,26,2,0,0.550778199998604,1
12038,139,Larynx,Sham,Cons,Clear,27,3,1,0.506458200005,1
12039,139,Larynx,Sham,Cons,Clear,28,1,0,0.510163399994781,1
12040,139,Larynx,Sham,Cons,Clear,29,4,1,0.4519620999999461,1
12041,139,Larynx,Sham,Cons,Clear,30,1,0,0.584859400005371,1
12042,139,Larynx,Sham,Cons,Clear,31,1,0,0.6216775000066259,1
12043,139,Larynx,Sham,Cons,Clear,32,3,1,0.68018039999879,1
12044,139,Larynx,Sham,Cons,Clear,33,5,1,0.495297699999355,1
12045,139,Larynx,Sham,Cons,Clear,34,2,0,0.689144500000111,1
12046,139,Larynx,Sham,Cons,Clear,35,4,1,0.6693487000011371,1
12047,139,Larynx,Sham,Cons,Clear,36,2,0,0.6526125000018511,1
12048,139,Larynx,Sham,Cons,Clear,37,3,1,1.09362240000337,1
12049,139,Larynx,Sham,Cons,Clear,38,3,1,0.7711742999963459,1
12050,139,Larynx,Sham,Cons,Clear,39,3,0,0.5946065999960409,1
12051,139,Larynx,Sham,Cons,Clear,40,2,0,0.921949700001278,1
12052,139,Larynx,Sham,Cons,Clear,41,4,1,0.76539660000708,1
12053,139,Larynx,Sham,Cons,Clear,42,4,1,0.645663800001785,1
12054,139,Larynx,Sham,Cons,Clear,43,2,0,0.64778970000043,1
12055,139,Larynx,Sham,Cons,Clear,44,3,1,0.7205979999998822,1
12056,139,Larynx,Sham,Cons,Clear,45,3,1,0.874158899998292,1
12057,139,Larynx,Sham,Cons,Clear,46,1,0,0.659968100000697,1
12058,139,Larynx,Sham,Cons,Clear,47,4,0,0.7264058000000658,1
12059,139,Larynx,Sham,Cons,Clear,48,3,1,0.641113000005134,1
12060,139,Larynx,Sham,Cons,Clear,49,2,0,0.7122259000025221,1
12061,139,Larynx,Sham,Cons,Clear,50,5,1,0.7409410000036591,1
12062,139,Larynx,Sham,Cons,Clear,51,1,0,0.8751555999988342,1
12063,139,Larynx,Sham,Cons,Clear,52,5,1,1.0468858000022,1
12064,139,Larynx,Sham,Cons,Clear,53,4,1,0.8014314999963968,1
12065,139,Larynx,Sham,Cons,Clear,54,3,0,0.8727330999972759,1
12066,139,Larynx,Sham,Cons,Clear,55,1,0,0.8395368999990749,1
12067,139,Larynx,Sham,Cons,Clear,56,5,1,0.8527585999981969,1
12068,139,Larynx,Sham,Cons,Clear,57,3,1,0.835296999997809,1
12069,139,Larynx,Sham,Cons,Clear,58,4,1,0.6848069000043321,1
12070,139,Larynx,Sham,Cons,Clear,59,3,0,1.16964519999601,1
12071,139,Larynx,Sham,Cons,Clear,60,2,0,0.783213599999726,1
12072,139,Larynx,Sham,Cons,Clear,61,3,1,0.7047439000016309,1
12073,139,Larynx,Sham,Cons,Clear,62,3,1,0.877045199995337,1
12074,139,Larynx,Sham,Cons,Clear,63,2,0,0.943305599997984,1
12075,139,Larynx,Sham,Cons,Clear,64,5,1,1.03234519999387,1
12076,139,Larynx,Sham,Cons,Clear,65,5,1,0.9185557999953741,1
12077,139,Larynx,Sham,Cons,Clear,66,1,0,0.681786300003296,1
12078,139,Larynx,Sham,Cons,Clear,67,3,1,0.714188399993873,1
12079,139,Larynx,Sham,Cons,Clear,68,4,1,0.9618466999963861,1
12080,139,Larynx,Sham,Cons,Clear,69,2,0,0.546753899994656,1
12081,139,Larynx,Sham,Cons,Clear,70,3,0,0.900881900000968,1
12082,139,Larynx,Sham,Cons,Clear,71,3,1,0.909773599996697,1
12083,139,Larynx,Sham,Cons,Clear,72,2,0,0.529590099999041,1
12084,139,Larynx,Sham,Cons,Clear,73,1,0,0.596386299999722,1
12085,139,Larynx,Sham,Cons,Clear,74,4,1,0.762997999998333,1
12086,139,Larynx,Sham,Cons,Clear,75,5,1,0.63247820000106,1
12087,139,Larynx,Sham,Cons,Clear,76,1,0,0.867000899997947,1
12088,139,Larynx,Sham,Cons,Clear,77,2,0,0.632863600003475,1
12089,139,Larynx,Sham,Cons,Clear,78,4,1,0.623124799996731,1
12090,139,Larynx,Sham,Cons,Clear,79,3,1,0.632447899995896,1
12091,139,Larynx,Sham,Cons,Clear,80,4,1,0.557502900002874,1
12092,139,Larynx,Sham,Cons,Clear,81,2,0,0.802079699999013,1
12093,139,Larynx,Sham,Cons,Clear,82,1,0,0.624314900000172,1
12094,139,Larynx,Sham,Cons,Clear,83,1,0,0.555988600004639,1
12095,139,Larynx,Sham,Cons,Clear,84,3,1,0.628177600003255,1
12096,139,Larynx,Sham,Cons,Clear,85,3,1,0.824448700004723,1
12097,139,Larynx,Sham,Cons,Clear,86,5,1,0.566197799998918,1
12098,139,Larynx,Sham,Cons,Clear,87,5,0,0.6159310999937591,1
12099,139,Larynx,Sham,Cons,Clear,88,3,1,0.7643179000006061,1
12100,139,Larynx,Sham,Cons,Clear,89,3,0,0.993449099994905,1
12101,139,Larynx,Sham,Cons,Clear,90,3,1,0.51397839999845,1
12102,139,Larynx,Sham,Cons,Clear,91,4,1,0.731450599996606,1
12103,139,Larynx,Sham,Cons,Clear,92,2,0,0.609009799998603,1
12104,139,Larynx,Sham,Cons,Clear,93,3,1,0.9765750000005942,1
12105,139,Larynx,Sham,Cons,Clear,94,4,1,0.512596200002008,1
12106,139,Larynx,Sham,Cons,Clear,95,5,1,0.5617171999983841,1
12107,139,Larynx,Sham,Cons,Clear,96,4,0,0.8747965000002299,1
12108,139,Larynx,Sham,Cons,Clear,97,5,1,0.671839799993904,1
12109,139,Larynx,Sham,Cons,Clear,98,3,0,0.647811000002548,1
12110,139,Larynx,Sham,Cons,Clear,99,2,0,0.7102510999975491,1
12111,139,Larynx,Sham,Cons,Clear,100,3,1,0.62232010000298,1
12112,139,Larynx,Sham,Cons,Clear,101,4,1,0.7644982000056191,1
12113,139,Larynx,Sham,Cons,Clear,102,1,0,0.5711384000023829,1
12114,139,Larynx,Sham,Cons,Clear,103,1,0,0.618037100000947,1
12115,139,Larynx,Sham,Cons,Clear,104,2,0,0.8629686999993279,1
12116,139,Larynx,Sham,Cons,Clear,105,2,0,0.792755199996463,1
12117,139,Larynx,Sham,Cons,Clear,106,5,1,0.7874248999942208,1
12118,139,Larynx,Sham,Cons,Clear,107,4,1,0.552532299996528,1
12119,139,Larynx,Sham,Cons,Clear,108,2,0,0.631667300003755,1
12120,139,Larynx,Sham,Cons,Clear,109,4,1,0.922702200005006,1
12121,139,Larynx,Sham,Cons,Clear,110,2,0,0.7087833999976278,1
12122,139,Larynx,Sham,Cons,Clear,111,3,0,1.16422010000679,1
12123,139,Larynx,Sham,Cons,Clear,112,1,0,0.704203200002667,1
12124,139,Larynx,Sham,Cons,Clear,113,1,1,0.670949499995913,1
12125,139,Larynx,Sham,Cons,Clear,114,3,1,0.7588137999991891,1
12126,139,Larynx,Sham,Cons,Clear,115,4,1,0.832047700001567,1
12127,139,Larynx,Sham,Cons,Clear,116,2,0,0.546194200003811,1
12128,139,Larynx,Sham,Cons,Clear,117,5,1,0.5957711999944879,1
12129,139,Larynx,Sham,Cons,Clear,118,3,1,0.9443911999987901,1
12130,139,Larynx,Sham,Cons,Clear,119,3,1,0.847301300003892,1
12131,139,Larynx,Sham,Cons,Clear,120,2,0,0.8339955999981609,1
12132,139,Larynx,Sham,Cons,Clear,121,1,0,0.598437900000135,1
12133,139,Larynx,Sham,Cons,Clear,122,3,1,1.30916240000079,1
12134,139,Larynx,Sham,Cons,Clear,123,3,1,0.68555500000366,1
12135,139,Larynx,Sham,Cons,Clear,124,2,0,0.5996263000051839,1
12136,139,Larynx,Sham,Cons,Clear,125,1,0,0.5475564999942439,1
12137,139,Larynx,Sham,Cons,Clear,126,4,1,0.726198800002749,1
12138,139,Larynx,Sham,Cons,Clear,127,4,1,0.641467000001285,1
12139,139,Larynx,Sham,Cons,Clear,128,5,1,0.6606967000043371,1
12140,139,Larynx,Sham,Cons,Clear,129,5,1,0.6741419000027239,1
12141,139,Larynx,Sham,Cons,Clear,130,5,1,0.6691958000010351,1
12142,139,Larynx,Sham,Cons,Clear,131,3,1,1.08543189999909,1
12143,139,Larynx,Sham,Cons,Clear,132,1,0,0.600802499997371,1
12144,139,Larynx,Sham,Cons,Clear,133,1,0,0.526652100001229,1
12145,139,Larynx,Sham,Cons,Clear,134,2,0,0.760280599999533,1
12146,139,Larynx,Sham,Cons,Clear,135,2,0,0.6936103999978511,1
12147,139,Larynx,Sham,Cons,Clear,136,2,0,0.8233363999970609,1
12148,139,Larynx,Sham,Cons,Clear,137,5,1,0.553122699995583,1
12149,139,Larynx,Sham,Cons,Clear,138,5,1,0.46524990000034494,1
12150,139,Larynx,Sham,Cons,Clear,139,4,1,0.655148500001815,1
12151,139,Larynx,Sham,Cons,Clear,140,4,1,0.7699772999985731,1
12152,139,Larynx,Sham,Cons,Clear,141,2,0,0.6410217000011469,1
12153,139,Larynx,Sham,Cons,Clear,142,2,0,0.6459092000004599,1
12154,139,Larynx,Sham,Cons,Clear,143,4,1,0.6066567000016221,1
12155,139,Larynx,Sham,Cons,Clear,144,5,1,0.632545000000391,1
12156,139,Larynx,Sham,Cons,Clear,145,3,0,1.10120779999852,1
12157,139,Larynx,Sham,Cons,Clear,146,3,1,0.695023399995989,1
12158,139,Larynx,Sham,Cons,Clear,147,3,1,0.5998284000015699,1
12159,139,Larynx,Sham,Cons,Clear,148,3,1,0.711556299997028,1
12160,139,Larynx,Sham,Cons,Clear,149,3,1,0.7485393000024492,1
12161,139,Larynx,Sham,Cons,Clear,150,4,1,0.630388899997342,1
12162,139,Larynx,Sham,Cons,Clear,151,4,1,0.6055560999957379,1
12163,139,Larynx,Sham,Cons,Clear,152,4,1,0.6574451999986201,1
12164,139,Larynx,Sham,Cons,Clear,153,1,0,0.5648460000011261,1
12165,139,Larynx,Sham,Cons,Clear,154,3,1,0.45106620000296993,1
12166,139,Larynx,Sham,Cons,Clear,155,1,0,0.7268679999979208,1
12167,139,Larynx,Sham,Cons,Clear,156,2,1,0.7348360999967549,1
13260,142,Larynx,Left cTBS,Cons,Clear,1,3,0,0.716937099932693,1
13261,142,Larynx,Left cTBS,Cons,Clear,2,3,1,0.54071740002837,1
13262,142,Larynx,Left cTBS,Cons,Clear,3,2,1,0.6170839000260461,1
13263,142,Larynx,Left cTBS,Cons,Clear,4,1,0,0.572265200084075,1
13264,142,Larynx,Left cTBS,Cons,Clear,5,3,1,0.6188572000246501,1
13265,142,Larynx,Left cTBS,Cons,Clear,6,3,1,0.5842197999591011,1
13266,142,Larynx,Left cTBS,Cons,Clear,7,2,0,0.8375988000771031,1
13267,142,Larynx,Left cTBS,Cons,Clear,8,1,0,0.5306275000330061,1
13268,142,Larynx,Left cTBS,Cons,Clear,9,4,1,0.563215099973604,1
13269,142,Larynx,Left cTBS,Cons,Clear,10,4,1,0.633135300013237,1
13270,142,Larynx,Left cTBS,Cons,Clear,11,5,1,0.482638100045733,1
13271,142,Larynx,Left cTBS,Cons,Clear,12,5,1,0.552492300048471,1
13272,142,Larynx,Left cTBS,Cons,Clear,13,5,1,0.5459664999507371,1
13273,142,Larynx,Left cTBS,Cons,Clear,14,3,1,0.523249199963175,1
13274,142,Larynx,Left cTBS,Cons,Clear,15,1,0,0.5120262000709771,1
13275,142,Larynx,Left cTBS,Cons,Clear,16,1,1,0.586590599967167,1
13276,142,Larynx,Left cTBS,Cons,Clear,17,2,1,0.411654899944551,1
13277,142,Larynx,Left cTBS,Cons,Clear,18,2,1,0.49985399993602203,1
13278,142,Larynx,Left cTBS,Cons,Clear,19,2,0,0.718595399986953,1
13279,142,Larynx,Left cTBS,Cons,Clear,20,5,1,0.718825700110756,1
13280,142,Larynx,Left cTBS,Cons,Clear,21,5,1,0.52434370003175,1
13281,142,Larynx,Left cTBS,Cons,Clear,22,4,1,0.5346529000671579,1
13282,142,Larynx,Left cTBS,Cons,Clear,23,4,1,0.526480800006539,1
13283,142,Larynx,Left cTBS,Cons,Clear,24,2,0,0.665921499952674,1
13284,142,Larynx,Left cTBS,Cons,Clear,25,2,1,0.49301580002065704,1
13285,142,Larynx,Left cTBS,Cons,Clear,26,4,1,0.758152600028552,1
13286,142,Larynx,Left cTBS,Cons,Clear,27,5,1,0.537945399992168,1
13287,142,Larynx,Left cTBS,Cons,Clear,28,3,1,0.515890199923888,1
13288,142,Larynx,Left cTBS,Cons,Clear,29,3,1,0.5468312999000771,1
13289,142,Larynx,Left cTBS,Cons,Clear,30,3,1,0.516539899981581,1
13290,142,Larynx,Left cTBS,Cons,Clear,31,3,1,0.526937299990095,1
13291,142,Larynx,Left cTBS,Cons,Clear,32,3,1,0.563905999995768,1
13292,142,Larynx,Left cTBS,Cons,Clear,33,4,1,0.49434019997715994,1
13293,142,Larynx,Left cTBS,Cons,Clear,34,4,1,0.559567399905063,1
13294,142,Larynx,Left cTBS,Cons,Clear,35,4,1,0.5419409000314771,1
13295,142,Larynx,Left cTBS,Cons,Clear,36,1,0,0.4768369999947029,1
13296,142,Larynx,Left cTBS,Cons,Clear,37,3,1,0.7127692000940441,1
13297,142,Larynx,Left cTBS,Cons,Clear,38,1,0,0.43385320005472705,1
13298,142,Larynx,Left cTBS,Cons,Clear,39,2,1,0.8080152999609709,1
13299,142,Larynx,Left cTBS,Cons,Clear,40,1,0,0.533901900053024,1
13300,142,Larynx,Left cTBS,Cons,Clear,41,5,1,0.395517299999483,1
13301,142,Larynx,Left cTBS,Cons,Clear,42,3,1,0.612480700016022,1
13302,142,Larynx,Left cTBS,Cons,Clear,43,3,1,0.6949176000198349,1
13303,142,Larynx,Left cTBS,Cons,Clear,44,5,1,0.6584514999995009,1
13304,142,Larynx,Left cTBS,Cons,Clear,45,2,0,0.595065800007433,1
13305,142,Larynx,Left cTBS,Cons,Clear,46,2,0,0.8793625000398609,1
13306,142,Larynx,Left cTBS,Cons,Clear,47,1,0,0.67054730001837,1
13307,142,Larynx,Left cTBS,Cons,Clear,48,4,1,0.499514600029215,1
13308,142,Larynx,Left cTBS,Cons,Clear,49,1,0,0.645864599966444,1
13309,142,Larynx,Left cTBS,Cons,Clear,50,5,1,0.503357300069183,1
13310,142,Larynx,Left cTBS,Cons,Clear,51,4,1,0.6691713000182061,1
13311,142,Larynx,Left cTBS,Cons,Clear,52,5,1,0.510473500005901,1
13312,142,Larynx,Left cTBS,Cons,Clear,53,3,1,0.5226175000425429,1
13313,142,Larynx,Left cTBS,Cons,Clear,54,4,1,0.461741599952802,1
13314,142,Larynx,Left cTBS,Cons,Clear,55,4,1,0.5666172000346711,1
13315,142,Larynx,Left cTBS,Cons,Clear,56,3,1,0.522733899997547,1
13316,142,Larynx,Left cTBS,Cons,Clear,57,2,0,0.5516566999722271,1
13317,142,Larynx,Left cTBS,Cons,Clear,58,1,0,0.589360699988902,1
13318,142,Larynx,Left cTBS,Cons,Clear,59,2,1,0.533159999991767,1
13319,142,Larynx,Left cTBS,Cons,Clear,60,2,0,0.628076499910094,1
13320,142,Larynx,Left cTBS,Cons,Clear,61,3,1,0.6713070999830961,1
13321,142,Larynx,Left cTBS,Cons,Clear,62,5,1,0.502158800023608,1
13322,142,Larynx,Left cTBS,Cons,Clear,63,4,1,0.45404380001127703,1
13323,142,Larynx,Left cTBS,Cons,Clear,64,3,1,0.47683370008598996,1
13324,142,Larynx,Left cTBS,Cons,Clear,65,2,0,0.7684073999989781,1
13325,142,Larynx,Left cTBS,Cons,Clear,66,1,0,0.475309300003573,1
13326,142,Larynx,Left cTBS,Cons,Clear,67,2,1,0.5788034000433979,1
13327,142,Larynx,Left cTBS,Cons,Clear,68,2,0,0.565919199958444,1
13328,142,Larynx,Left cTBS,Cons,Clear,69,3,1,0.7561624000081791,1
13329,142,Larynx,Left cTBS,Cons,Clear,70,1,0,0.42828059999737894,1
13330,142,Larynx,Left cTBS,Cons,Clear,71,5,1,0.469948300044052,1
13331,142,Larynx,Left cTBS,Cons,Clear,72,3,1,0.6973822000436479,1
13332,142,Larynx,Left cTBS,Cons,Clear,73,3,1,0.6334667000919579,1
13333,142,Larynx,Left cTBS,Cons,Clear,74,4,1,0.520670600002632,1
13334,142,Larynx,Left cTBS,Cons,Clear,75,3,1,0.546586400014348,1
13335,142,Larynx,Left cTBS,Cons,Clear,76,4,1,0.529275699984282,1
13336,142,Larynx,Left cTBS,Cons,Clear,77,3,1,0.7239374000346289,1
13337,142,Larynx,Left cTBS,Cons,Clear,78,4,1,0.644696700037457,1
13338,142,Larynx,Left cTBS,Cons,Clear,79,3,1,0.6167652000440279,1
13339,142,Larynx,Left cTBS,Cons,Clear,80,3,1,0.6735235999803989,1
13340,142,Larynx,Left cTBS,Cons,Clear,81,4,1,0.6479220999171961,1
13341,142,Larynx,Left cTBS,Cons,Clear,82,2,0,0.7670053000329059,1
13342,142,Larynx,Left cTBS,Cons,Clear,83,4,1,0.460291799972765,1
13343,142,Larynx,Left cTBS,Cons,Clear,84,5,1,0.7256100999657059,1
13344,142,Larynx,Left cTBS,Cons,Clear,85,2,0,0.5793118999572471,1
13345,142,Larynx,Left cTBS,Cons,Clear,86,1,0,0.569286300102249,1
13346,142,Larynx,Left cTBS,Cons,Clear,87,5,1,0.593374100048095,1
13347,142,Larynx,Left cTBS,Cons,Clear,88,3,1,0.469723899965175,1
13348,142,Larynx,Left cTBS,Cons,Clear,89,4,1,0.580205100006424,1
13349,142,Larynx,Left cTBS,Cons,Clear,90,2,1,0.5427818000316621,1
13350,142,Larynx,Left cTBS,Cons,Clear,91,1,0,0.516696900012903,1
13351,142,Larynx,Left cTBS,Cons,Clear,92,4,1,0.5606947999913249,1
13352,142,Larynx,Left cTBS,Cons,Clear,93,2,1,0.5537744999164721,1
13353,142,Larynx,Left cTBS,Cons,Clear,94,5,1,0.625309700029902,1
13354,142,Larynx,Left cTBS,Cons,Clear,95,5,1,0.5461873000022021,1
13355,142,Larynx,Left cTBS,Cons,Clear,96,1,0,0.44069319998379797,1
13356,142,Larynx,Left cTBS,Cons,Clear,97,3,1,0.6472046000417321,1
13357,142,Larynx,Left cTBS,Cons,Clear,98,3,1,0.554686699993908,1
13358,142,Larynx,Left cTBS,Cons,Clear,99,3,1,0.7194078000029549,1
13359,142,Larynx,Left cTBS,Cons,Clear,100,4,1,0.5792328999377789,1
13360,142,Larynx,Left cTBS,Cons,Clear,101,2,0,0.534547800081782,1
13361,142,Larynx,Left cTBS,Cons,Clear,102,5,1,0.48892750008963004,1
13362,142,Larynx,Left cTBS,Cons,Clear,103,2,0,0.5916512999683621,1
13363,142,Larynx,Left cTBS,Cons,Clear,104,4,1,0.382008200045675,1
13364,142,Larynx,Left cTBS,Cons,Clear,105,3,1,1.03387759998441,1
13365,142,Larynx,Left cTBS,Cons,Clear,106,2,0,0.596852500108071,1
13366,142,Larynx,Left cTBS,Cons,Clear,107,4,1,0.5657646000618121,1
13367,142,Larynx,Left cTBS,Cons,Clear,108,3,1,0.555928700021468,1
13368,142,Larynx,Left cTBS,Cons,Clear,109,3,1,0.550160100101493,1
13369,142,Larynx,Left cTBS,Cons,Clear,110,1,0,0.38400269998237496,1
13370,142,Larynx,Left cTBS,Cons,Clear,111,3,1,0.491640000022016,1
13371,142,Larynx,Left cTBS,Cons,Clear,112,1,0,0.46557180001400394,1
13372,142,Larynx,Left cTBS,Cons,Clear,113,3,1,0.376911200000905,1
13373,142,Larynx,Left cTBS,Cons,Clear,114,5,1,0.636026000021957,1
13374,142,Larynx,Left cTBS,Cons,Clear,115,2,0,0.606526999967173,1
13375,142,Larynx,Left cTBS,Cons,Clear,116,4,1,0.5085650000255549,1
13376,142,Larynx,Left cTBS,Cons,Clear,117,1,1,0.5237804999342189,1
13377,142,Larynx,Left cTBS,Cons,Clear,118,5,1,0.528206399991177,1
13378,142,Larynx,Left cTBS,Cons,Clear,119,2,0,0.628892300068401,1
13379,142,Larynx,Left cTBS,Cons,Clear,120,3,1,0.38934460002928994,1
13380,142,Larynx,Left cTBS,Cons,Clear,121,2,0,0.7928162999451159,1
13381,142,Larynx,Left cTBS,Cons,Clear,122,1,0,0.699586299946532,1
13382,142,Larynx,Left cTBS,Cons,Clear,123,1,0,0.60076579998713,1
13383,142,Larynx,Left cTBS,Cons,Clear,124,3,1,0.5872172999661421,1
13384,142,Larynx,Left cTBS,Cons,Clear,125,3,1,0.790191599982791,1
13385,142,Larynx,Left cTBS,Cons,Clear,126,3,0,0.8193595999618991,1
13386,142,Larynx,Left cTBS,Cons,Clear,127,2,1,0.541136100073345,1
13387,142,Larynx,Left cTBS,Cons,Clear,128,4,1,0.6830644999863579,1
13388,142,Larynx,Left cTBS,Cons,Clear,129,3,1,0.770365600008518,1
13389,142,Larynx,Left cTBS,Cons,Clear,130,4,1,0.599603999988176,1
13390,142,Larynx,Left cTBS,Cons,Clear,131,3,1,0.6383172000059859,1
13391,142,Larynx,Left cTBS,Cons,Clear,132,2,0,0.49151820002589397,1
13392,142,Larynx,Left cTBS,Cons,Clear,133,2,0,0.631925199995749,1
13393,142,Larynx,Left cTBS,Cons,Clear,134,3,1,0.790577900013886,1
13394,142,Larynx,Left cTBS,Cons,Clear,135,1,0,0.47409880009945504,1
13395,142,Larynx,Left cTBS,Cons,Clear,136,3,1,0.461710199946538,1
13396,142,Larynx,Left cTBS,Cons,Clear,137,4,1,0.538111799978651,1
13397,142,Larynx,Left cTBS,Cons,Clear,138,5,1,0.47540310001932107,1
13398,142,Larynx,Left cTBS,Cons,Clear,139,2,0,0.648352799937129,1
13399,142,Larynx,Left cTBS,Cons,Clear,140,4,1,0.47353880002628995,1
13400,142,Larynx,Left cTBS,Cons,Clear,141,5,1,0.5338845000369471,1
13401,142,Larynx,Left cTBS,Cons,Clear,142,4,1,0.48139339999761405,1
13402,142,Larynx,Left cTBS,Cons,Clear,143,3,0,0.695325899985619,1
13403,142,Larynx,Left cTBS,Cons,Clear,144,3,1,0.42176739999558793,1
13404,142,Larynx,Left cTBS,Cons,Clear,145,1,0,0.49663370009511704,1
13405,142,Larynx,Left cTBS,Cons,Clear,146,3,1,0.37195140006952004,1
13406,142,Larynx,Left cTBS,Cons,Clear,147,2,1,0.513712999993004,1
13407,142,Larynx,Left cTBS,Cons,Clear,148,1,0,0.37074929999653294,1
13408,142,Larynx,Left cTBS,Cons,Clear,149,1,0,0.609315400011837,1
13409,142,Larynx,Left cTBS,Cons,Clear,150,5,1,0.448813800001517,1
13410,142,Larynx,Left cTBS,Cons,Clear,151,5,1,0.5446786999236789,1
13411,142,Larynx,Left cTBS,Cons,Clear,152,4,1,0.45370059995912,1
13412,142,Larynx,Left cTBS,Cons,Clear,153,5,1,0.5564249000744891,1
13413,142,Larynx,Left cTBS,Cons,Clear,154,2,1,0.402605299954303,1
13414,142,Larynx,Left cTBS,Cons,Clear,155,4,1,0.629530300037004,1
13415,142,Larynx,Left cTBS,Cons,Clear,156,4,1,0.585930600063875,1
15132,142,Larynx,Sham,Cons,Clear,1,3,1,0.556075799999235,1
15133,142,Larynx,Sham,Cons,Clear,2,4,1,0.6121361000004979,1
15134,142,Larynx,Sham,Cons,Clear,3,4,1,0.461367300002166,1
15135,142,Larynx,Sham,Cons,Clear,4,5,1,0.542899300002318,1
15136,142,Larynx,Sham,Cons,Clear,5,4,1,0.508632799999759,1
15137,142,Larynx,Sham,Cons,Clear,6,4,1,0.566834400000516,1
15138,142,Larynx,Sham,Cons,Clear,7,5,1,0.532555499998125,1
15139,142,Larynx,Sham,Cons,Clear,8,5,1,1.14910210000016,1
15140,142,Larynx,Sham,Cons,Clear,9,1,0,0.679281099997752,1
15141,142,Larynx,Sham,Cons,Clear,10,3,1,0.7212709000013999,1
15142,142,Larynx,Sham,Cons,Clear,11,5,1,0.580508500002907,1
15143,142,Larynx,Sham,Cons,Clear,12,2,0,0.7713614999993299,1
15144,142,Larynx,Sham,Cons,Clear,13,3,0,0.780464900002698,1
15145,142,Larynx,Sham,Cons,Clear,14,1,0,0.503642100000434,1
15146,142,Larynx,Sham,Cons,Clear,15,1,0,0.522848199998407,1
15147,142,Larynx,Sham,Cons,Clear,16,2,1,0.5671289999991129,1
15148,142,Larynx,Sham,Cons,Clear,17,3,1,0.731044000000111,1
15149,142,Larynx,Sham,Cons,Clear,18,1,0,0.47095660000195505,1
15150,142,Larynx,Sham,Cons,Clear,19,3,1,0.641048100002081,1
15151,142,Larynx,Sham,Cons,Clear,20,3,1,0.6539682000002359,1
15152,142,Larynx,Sham,Cons,Clear,21,3,0,0.71960559999934,1
15153,142,Larynx,Sham,Cons,Clear,22,4,1,0.560139000001072,1
15154,142,Larynx,Sham,Cons,Clear,23,4,1,0.5050655000013651,1
15155,142,Larynx,Sham,Cons,Clear,24,5,1,0.646535399999266,1
15156,142,Larynx,Sham,Cons,Clear,25,3,0,0.5915338999984671,1
15157,142,Larynx,Sham,Cons,Clear,26,3,1,0.628899800001818,1
15158,142,Larynx,Sham,Cons,Clear,27,3,0,0.557101800000964,1
15159,142,Larynx,Sham,Cons,Clear,28,1,0,0.660137099999702,1
15160,142,Larynx,Sham,Cons,Clear,29,4,1,0.543300100001943,1
15161,142,Larynx,Sham,Cons,Clear,30,2,0,0.502072499999485,1
15162,142,Larynx,Sham,Cons,Clear,31,2,0,0.844994499999302,1
15163,142,Larynx,Sham,Cons,Clear,32,3,1,0.529799100000673,1
15164,142,Larynx,Sham,Cons,Clear,33,4,1,0.7255267000000459,1
15165,142,Larynx,Sham,Cons,Clear,34,5,1,0.5707524999997989,1
15166,142,Larynx,Sham,Cons,Clear,35,2,0,0.548212199999398,1
15167,142,Larynx,Sham,Cons,Clear,36,2,0,0.63633149999805,1
15168,142,Larynx,Sham,Cons,Clear,37,2,1,0.5703360000006801,1
15169,142,Larynx,Sham,Cons,Clear,38,1,0,0.730581299998448,1
15170,142,Larynx,Sham,Cons,Clear,39,2,0,0.7509396999994351,1
15171,142,Larynx,Sham,Cons,Clear,40,4,1,0.4697431999993571,1
15172,142,Larynx,Sham,Cons,Clear,41,3,1,0.9758123999999949,1
15173,142,Larynx,Sham,Cons,Clear,42,4,1,0.6469060000017629,1
15174,142,Larynx,Sham,Cons,Clear,43,1,0,0.638489900000422,1
15175,142,Larynx,Sham,Cons,Clear,44,1,0,0.505169000000024,1
15176,142,Larynx,Sham,Cons,Clear,45,2,0,0.6328907000024631,1
15177,142,Larynx,Sham,Cons,Clear,46,4,1,0.9570526999996221,1
15178,142,Larynx,Sham,Cons,Clear,47,4,0,0.687394500000664,1
15179,142,Larynx,Sham,Cons,Clear,48,5,1,0.939267999998265,1
15180,142,Larynx,Sham,Cons,Clear,49,4,1,0.572082099999534,1
15181,142,Larynx,Sham,Cons,Clear,50,2,0,0.5087850999989311,1
15182,142,Larynx,Sham,Cons,Clear,51,1,0,0.6890944999977359,1
15183,142,Larynx,Sham,Cons,Clear,52,3,1,0.800444999997126,1
15184,142,Larynx,Sham,Cons,Clear,53,5,1,0.834596600001532,1
15185,142,Larynx,Sham,Cons,Clear,54,2,0,0.7062295000032459,1
15186,142,Larynx,Sham,Cons,Clear,55,2,0,0.626545599996462,1
15187,142,Larynx,Sham,Cons,Clear,56,3,1,0.6672032000024051,1
15188,142,Larynx,Sham,Cons,Clear,57,5,1,0.7614646000001809,1
15189,142,Larynx,Sham,Cons,Clear,58,3,0,0.7191284999971691,1
15190,142,Larynx,Sham,Cons,Clear,59,3,1,0.522141400000692,1
15191,142,Larynx,Sham,Cons,Clear,60,2,0,0.7640837999970241,1
15192,142,Larynx,Sham,Cons,Clear,61,3,1,0.49431550000008395,1
15193,142,Larynx,Sham,Cons,Clear,62,4,1,0.536109299999225,1
15194,142,Larynx,Sham,Cons,Clear,63,3,1,0.534142299999075,1
15195,142,Larynx,Sham,Cons,Clear,64,5,1,0.551499199998943,1
15196,142,Larynx,Sham,Cons,Clear,65,3,0,0.610712899997452,1
15197,142,Larynx,Sham,Cons,Clear,66,3,1,0.546110199997202,1
15198,142,Larynx,Sham,Cons,Clear,67,4,1,0.6053524000017211,1
15199,142,Larynx,Sham,Cons,Clear,68,1,0,0.45377809999990903,1
15200,142,Larynx,Sham,Cons,Clear,69,3,1,0.40135759999975607,1
15201,142,Larynx,Sham,Cons,Clear,70,5,1,0.6464684000020501,1
15202,142,Larynx,Sham,Cons,Clear,71,3,1,0.528922800000146,1
15203,142,Larynx,Sham,Cons,Clear,72,4,1,0.9097983000028759,1
15204,142,Larynx,Sham,Cons,Clear,73,5,1,0.7705052999990579,1
15205,142,Larynx,Sham,Cons,Clear,74,2,0,0.51840920000177,1
15206,142,Larynx,Sham,Cons,Clear,75,1,0,0.503255599996919,1
15207,142,Larynx,Sham,Cons,Clear,76,2,0,0.6708225999973371,1
15208,142,Larynx,Sham,Cons,Clear,77,1,0,0.611634900000354,1
15209,142,Larynx,Sham,Cons,Clear,78,2,0,0.5835279000020821,1
15210,142,Larynx,Sham,Cons,Clear,79,5,1,0.425576599998749,1
15211,142,Larynx,Sham,Cons,Clear,80,2,0,0.6992586000014851,1
15212,142,Larynx,Sham,Cons,Clear,81,2,0,0.6388522000015661,1
15213,142,Larynx,Sham,Cons,Clear,82,2,0,0.666051600001083,1
15214,142,Larynx,Sham,Cons,Clear,83,4,1,0.46665270000084996,1
15215,142,Larynx,Sham,Cons,Clear,84,2,0,0.6253066999997829,1
15216,142,Larynx,Sham,Cons,Clear,85,2,0,0.6084227999999711,1
15217,142,Larynx,Sham,Cons,Clear,86,1,0,0.568553299999621,1
15218,142,Larynx,Sham,Cons,Clear,87,5,1,0.6734729000017979,1
15219,142,Larynx,Sham,Cons,Clear,88,5,1,0.8190954000019699,1
15220,142,Larynx,Sham,Cons,Clear,89,3,0,0.760494800000743,1
15221,142,Larynx,Sham,Cons,Clear,90,3,1,0.598821899999166,1
15222,142,Larynx,Sham,Cons,Clear,91,3,1,0.6638931999987111,1
15223,142,Larynx,Sham,Cons,Clear,92,4,1,0.677042200000869,1
15224,142,Larynx,Sham,Cons,Clear,93,4,1,0.547712299998238,1
15225,142,Larynx,Sham,Cons,Clear,94,5,1,0.652937799997744,1
15226,142,Larynx,Sham,Cons,Clear,95,4,1,0.576326099999278,1
15227,142,Larynx,Sham,Cons,Clear,96,5,1,0.688476600000286,1
15228,142,Larynx,Sham,Cons,Clear,97,1,0,0.679985700000543,1
15229,142,Larynx,Sham,Cons,Clear,98,3,1,1.1320367999978798,1
15230,142,Larynx,Sham,Cons,Clear,99,1,0,0.552991700002167,1
15231,142,Larynx,Sham,Cons,Clear,100,3,1,0.438754300001165,1
15232,142,Larynx,Sham,Cons,Clear,101,1,0,0.5115941000003661,1
15233,142,Larynx,Sham,Cons,Clear,102,4,1,0.430973899998207,1
15234,142,Larynx,Sham,Cons,Clear,103,3,0,0.8214603999986141,1
15235,142,Larynx,Sham,Cons,Clear,104,4,1,0.441500999997515,1
15236,142,Larynx,Sham,Cons,Clear,105,2,0,0.572031399999105,1
15237,142,Larynx,Sham,Cons,Clear,106,3,1,0.557421300003625,1
15238,142,Larynx,Sham,Cons,Clear,107,3,1,0.683097899996937,1
15239,142,Larynx,Sham,Cons,Clear,108,5,1,0.6744103000019089,1
15240,142,Larynx,Sham,Cons,Clear,109,3,0,0.9040806999983029,1
15241,142,Larynx,Sham,Cons,Clear,110,2,0,0.808880299999146,1
15242,142,Larynx,Sham,Cons,Clear,111,1,0,0.591128500000195,1
15243,142,Larynx,Sham,Cons,Clear,112,4,1,0.681439500000124,1
15244,142,Larynx,Sham,Cons,Clear,113,3,1,0.7177445999986959,1
15245,142,Larynx,Sham,Cons,Clear,114,4,1,0.663535200001206,1
15246,142,Larynx,Sham,Cons,Clear,115,1,0,0.5907213999998929,1
15247,142,Larynx,Sham,Cons,Clear,116,2,0,0.652258499998425,1
15248,142,Larynx,Sham,Cons,Clear,117,3,1,0.601586500000849,1
15249,142,Larynx,Sham,Cons,Clear,118,1,0,0.43884640000033,1
15250,142,Larynx,Sham,Cons,Clear,119,3,1,0.5016435000034111,1
15251,142,Larynx,Sham,Cons,Clear,120,1,0,0.516758699999627,1
15252,142,Larynx,Sham,Cons,Clear,121,3,1,0.424269999999524,1
15253,142,Larynx,Sham,Cons,Clear,122,2,1,0.647660800001177,1
15254,142,Larynx,Sham,Cons,Clear,123,4,1,0.7505473999990501,1
15255,142,Larynx,Sham,Cons,Clear,124,4,1,0.5948056999986869,1
15256,142,Larynx,Sham,Cons,Clear,125,3,1,0.860292299999855,1
15257,142,Larynx,Sham,Cons,Clear,126,3,1,0.7487202000011169,1
15258,142,Larynx,Sham,Cons,Clear,127,2,0,0.5400616000006271,1
15259,142,Larynx,Sham,Cons,Clear,128,4,1,0.5924715000001021,1
15260,142,Larynx,Sham,Cons,Clear,129,5,1,0.685124100000394,1
15261,142,Larynx,Sham,Cons,Clear,130,2,0,0.5996588999987579,1
15262,142,Larynx,Sham,Cons,Clear,131,1,0,0.540347499998461,1
15263,142,Larynx,Sham,Cons,Clear,132,2,0,0.785832199999277,1
15264,142,Larynx,Sham,Cons,Clear,133,5,1,0.543379200000345,1
15265,142,Larynx,Sham,Cons,Clear,134,3,0,0.610589300002175,1
15266,142,Larynx,Sham,Cons,Clear,135,3,1,0.626920999999129,1
15267,142,Larynx,Sham,Cons,Clear,136,3,0,0.549788200001785,1
15268,142,Larynx,Sham,Cons,Clear,137,2,0,0.9536135999987891,1
15269,142,Larynx,Sham,Cons,Clear,138,3,1,0.5744145999997271,1
15270,142,Larynx,Sham,Cons,Clear,139,4,1,0.814684099997976,1
15271,142,Larynx,Sham,Cons,Clear,140,3,1,0.8828484000005121,1
15272,142,Larynx,Sham,Cons,Clear,141,4,1,0.690249800001766,1
15273,142,Larynx,Sham,Cons,Clear,142,1,0,0.7089027000001809,1
15274,142,Larynx,Sham,Cons,Clear,143,5,1,0.629913699998724,1
15275,142,Larynx,Sham,Cons,Clear,144,2,0,0.558288700001867,1
15276,142,Larynx,Sham,Cons,Clear,145,3,1,0.6077296000003121,1
15277,142,Larynx,Sham,Cons,Clear,146,4,1,0.729061800000636,1
15278,142,Larynx,Sham,Cons,Clear,147,1,0,0.7456076999988,1
15279,142,Larynx,Sham,Cons,Clear,148,1,0,0.861547399999836,1
15280,142,Larynx,Sham,Cons,Clear,149,2,0,0.626924800002598,1
15281,142,Larynx,Sham,Cons,Clear,150,5,1,0.6598634000001771,1
15282,142,Larynx,Sham,Cons,Clear,151,5,1,0.6216482000018001,1
15283,142,Larynx,Sham,Cons,Clear,152,5,1,0.6678327000008721,1
15284,142,Larynx,Sham,Cons,Clear,153,4,1,0.62129780000032,1
15285,142,Larynx,Sham,Cons,Clear,154,3,0,0.586118100000022,1
15286,142,Larynx,Sham,Cons,Clear,155,2,0,0.6799238999992672,1
15287,142,Larynx,Sham,Cons,Clear,156,4,1,0.62818630000038,1
16380,201,Larynx,Left cTBS,Cons,Clear,1,4,1,1.0319399000145502,1
16381,201,Larynx,Left cTBS,Cons,Clear,2,2,1,0.693556800018996,1
16382,201,Larynx,Left cTBS,Cons,Clear,3,4,1,0.677442799962591,1
16383,201,Larynx,Left cTBS,Cons,Clear,4,5,1,0.643623700016178,1
16384,201,Larynx,Left cTBS,Cons,Clear,5,5,1,0.6580888999742459,1
16385,201,Larynx,Left cTBS,Cons,Clear,6,2,1,0.6965334999840711,1
16386,201,Larynx,Left cTBS,Cons,Clear,7,2,1,0.6630418000277131,1
16387,201,Larynx,Left cTBS,Cons,Clear,8,3,1,0.6687572000082579,1
16388,201,Larynx,Left cTBS,Cons,Clear,9,4,1,0.731528000032995,1
16389,201,Larynx,Left cTBS,Cons,Clear,10,3,1,0.6524219000129959,1
16390,201,Larynx,Left cTBS,Cons,Clear,11,5,1,0.578125600004569,1
16391,201,Larynx,Left cTBS,Cons,Clear,12,1,0,0.580651999975089,1
16392,201,Larynx,Left cTBS,Cons,Clear,13,4,1,0.56040459999349,1
16393,201,Larynx,Left cTBS,Cons,Clear,14,5,1,0.488327300001401,1
16394,201,Larynx,Left cTBS,Cons,Clear,15,5,1,0.525587000011001,1
16395,201,Larynx,Left cTBS,Cons,Clear,16,1,0,0.505816199991386,1
16396,201,Larynx,Left cTBS,Cons,Clear,17,1,0,0.661114399961662,1
16397,201,Larynx,Left cTBS,Cons,Clear,18,3,1,0.521447500039358,1
16398,201,Larynx,Left cTBS,Cons,Clear,19,3,1,0.41533749998779995,1
16399,201,Larynx,Left cTBS,Cons,Clear,20,3,1,0.533021099981852,1
16400,201,Larynx,Left cTBS,Cons,Clear,21,3,1,0.58466920000501,1
16401,201,Larynx,Left cTBS,Cons,Clear,22,2,1,0.432757400034461,1
16402,201,Larynx,Left cTBS,Cons,Clear,23,1,0,0.5673945000162349,1
16403,201,Larynx,Left cTBS,Cons,Clear,24,4,1,0.511457999993581,1
16404,201,Larynx,Left cTBS,Cons,Clear,25,1,0,0.5211428000475279,1
16405,201,Larynx,Left cTBS,Cons,Clear,26,2,0,0.5575375999906099,1
16406,201,Larynx,Left cTBS,Cons,Clear,27,3,1,0.571705400012434,1
16407,201,Larynx,Left cTBS,Cons,Clear,28,4,1,0.53598400001647,1
16408,201,Larynx,Left cTBS,Cons,Clear,29,3,1,0.5039759000064811,1
16409,201,Larynx,Left cTBS,Cons,Clear,30,4,1,0.573374999978114,1
16410,201,Larynx,Left cTBS,Cons,Clear,31,2,1,0.516398300009314,1
16411,201,Larynx,Left cTBS,Cons,Clear,32,2,1,0.428417900053319,1
16412,201,Larynx,Left cTBS,Cons,Clear,33,3,1,0.45942969998577604,1
16413,201,Larynx,Left cTBS,Cons,Clear,34,1,0,0.537811599962879,1
16414,201,Larynx,Left cTBS,Cons,Clear,35,3,1,0.565127600042615,1
16415,201,Larynx,Left cTBS,Cons,Clear,36,3,1,0.7239605999784541,1
16416,201,Larynx,Left cTBS,Cons,Clear,37,2,1,0.585879100020975,1
16417,201,Larynx,Left cTBS,Cons,Clear,38,4,1,0.4496048999717461,1
16418,201,Larynx,Left cTBS,Cons,Clear,39,5,1,0.640671800007112,1
16419,201,Larynx,Left cTBS,Cons,Clear,40,5,1,0.46480209997389504,1
16420,201,Larynx,Left cTBS,Cons,Clear,41,5,1,0.633102699997835,1
