,subj_idx,group_idx,turn_type,task_type,snr_type,trial_num,step_att,response,rt,step_unatnd
2340,55,Larynx,Right cTBS,Cons,Noise,1,4,1,1.56720330000098,1
2341,55,Larynx,Right cTBS,Cons,Noise,2,3,1,0.8659024000080541,1
2342,55,Larynx,Right cTBS,Cons,Noise,3,4,0,0.8074063000094609,1
2343,55,Larynx,Right cTBS,Cons,Noise,4,5,0,0.645324099998106,1
2344,55,Larynx,Right cTBS,Cons,Noise,5,2,1,0.8507234999997308,1
2345,55,Larynx,Right cTBS,Cons,Noise,6,1,0,0.731251999997767,1
2346,55,Larynx,Right cTBS,Cons,Noise,7,2,1,0.7728908000135559,1
2347,55,Larynx,Right cTBS,Cons,Noise,8,4,1,0.744159699999727,1
2348,55,Larynx,Right cTBS,Cons,Noise,9,1,0,0.559179899995797,1
2349,55,Larynx,Right cTBS,Cons,Noise,10,3,1,0.491038499996648,1
2350,55,Larynx,Right cTBS,Cons,Noise,11,4,1,0.510589500001515,1
2351,55,Larynx,Right cTBS,Cons,Noise,12,1,1,0.572342300001765,1
2352,55,Larynx,Right cTBS,Cons,Noise,13,5,1,0.7702242999948791,1
2353,55,Larynx,Right cTBS,Cons,Noise,14,3,1,0.512002300005406,1
2354,55,Larynx,Right cTBS,Cons,Noise,15,3,0,0.646731800006819,1
2355,55,Larynx,Right cTBS,Cons,Noise,16,5,1,0.784180600006948,1
2356,55,Larynx,Right cTBS,Cons,Noise,17,2,1,0.576587799994741,1
2357,55,Larynx,Right cTBS,Cons,Noise,18,2,1,0.5900467000028579,1
2358,55,Larynx,Right cTBS,Cons,Noise,19,3,1,0.5674304999993179,1
2359,55,Larynx,Right cTBS,Cons,Noise,20,4,1,0.7844859000033471,1
2360,55,Larynx,Right cTBS,Cons,Noise,21,3,1,0.5086943000060271,1
2361,55,Larynx,Right cTBS,Cons,Noise,22,4,1,0.537473200005479,1
2362,55,Larynx,Right cTBS,Cons,Noise,23,1,0,2.15426819999993,1
2363,55,Larynx,Right cTBS,Cons,Noise,24,3,1,2.41813660001208,1
2364,55,Larynx,Right cTBS,Cons,Noise,25,2,1,0.7605722000007521,1
2365,55,Larynx,Right cTBS,Cons,Noise,26,3,1,0.850652499997523,1
2366,55,Larynx,Right cTBS,Cons,Noise,27,4,1,0.547626200001105,1
2367,55,Larynx,Right cTBS,Cons,Noise,28,5,1,0.576864799993928,1
2368,55,Larynx,Right cTBS,Cons,Noise,29,1,1,0.670757600004436,1
2369,55,Larynx,Right cTBS,Cons,Noise,30,2,1,1.6822673999995499,1
2370,55,Larynx,Right cTBS,Cons,Noise,31,3,1,0.7373373000009449,1
2371,55,Larynx,Right cTBS,Cons,Noise,32,4,1,0.5490164000075309,1
2372,55,Larynx,Right cTBS,Cons,Noise,33,5,1,0.55971149999823,1
2373,55,Larynx,Right cTBS,Cons,Noise,34,3,1,0.8394342999963559,1
2374,55,Larynx,Right cTBS,Cons,Noise,35,2,1,0.8302859000104951,1
2375,55,Larynx,Right cTBS,Cons,Noise,36,1,1,0.8980303999996979,1
2376,55,Larynx,Right cTBS,Cons,Noise,37,2,1,0.769121800010907,1
2377,55,Larynx,Right cTBS,Cons,Noise,38,3,1,3.2431688999931803,1
2378,55,Larynx,Right cTBS,Cons,Noise,39,5,1,0.7000210999976839,1
2379,55,Larynx,Right cTBS,Cons,Noise,40,3,0,1.0440449000016099,1
2380,55,Larynx,Right cTBS,Cons,Noise,41,1,1,0.942331800004467,1
2381,55,Larynx,Right cTBS,Cons,Noise,42,1,0,2.5452820999926202,1
2382,55,Larynx,Right cTBS,Cons,Noise,43,2,0,0.587438999995356,1
2383,55,Larynx,Right cTBS,Cons,Noise,44,2,0,0.838209599998663,1
2384,55,Larynx,Right cTBS,Cons,Noise,45,2,0,1.00730270000349,1
2385,55,Larynx,Right cTBS,Cons,Noise,46,3,0,0.7724998999910891,1
2386,55,Larynx,Right cTBS,Cons,Noise,47,5,1,2.55327390000457,1
2387,55,Larynx,Right cTBS,Cons,Noise,48,5,0,1.32229650000227,1
2388,55,Larynx,Right cTBS,Cons,Noise,49,1,0,1.42984529999376,1
2389,55,Larynx,Right cTBS,Cons,Noise,50,1,0,0.665105399995809,1
2390,55,Larynx,Right cTBS,Cons,Noise,51,3,1,1.00628739999956,1
2391,55,Larynx,Right cTBS,Cons,Noise,52,4,0,0.6500089000037409,1
2392,55,Larynx,Right cTBS,Cons,Noise,53,4,0,1.05009160000191,1
2393,55,Larynx,Right cTBS,Cons,Noise,54,5,1,1.04195729999628,1
2394,55,Larynx,Right cTBS,Cons,Noise,55,5,1,0.6681016999937129,1
2395,55,Larynx,Right cTBS,Cons,Noise,56,3,1,0.605638200009707,1
2396,55,Larynx,Right cTBS,Cons,Noise,57,4,1,1.6499645000003502,1
2397,55,Larynx,Right cTBS,Cons,Noise,58,3,0,1.0476648000039899,1
2398,55,Larynx,Right cTBS,Cons,Noise,59,2,0,3.9224513999943196,1
2399,55,Larynx,Right cTBS,Cons,Noise,60,2,0,0.893859200004954,1
2400,55,Larynx,Right cTBS,Cons,Noise,61,3,0,0.7341778999980308,1
2401,55,Larynx,Right cTBS,Cons,Noise,62,4,0,0.78994080000848,1
2402,55,Larynx,Right cTBS,Cons,Noise,63,3,1,0.7227903000020891,1
2403,55,Larynx,Right cTBS,Cons,Noise,64,4,0,0.731499899993651,1
2404,55,Larynx,Right cTBS,Cons,Noise,65,2,1,0.6994650999986329,1
2405,55,Larynx,Right cTBS,Cons,Noise,66,3,0,0.641354000006686,1
2406,55,Larynx,Right cTBS,Cons,Noise,67,3,1,0.6841795000073029,1
2407,55,Larynx,Right cTBS,Cons,Noise,68,5,1,0.9633220000105209,1
2408,55,Larynx,Right cTBS,Cons,Noise,69,4,1,1.2577744000009299,1
2409,55,Larynx,Right cTBS,Cons,Noise,70,5,1,0.838624600000912,1
2410,55,Larynx,Right cTBS,Cons,Noise,71,2,0,0.897454799996922,1
2411,55,Larynx,Right cTBS,Cons,Noise,72,4,1,0.69350160000613,1
2412,55,Larynx,Right cTBS,Cons,Noise,73,2,0,1.4177780000027298,1
2413,55,Larynx,Right cTBS,Cons,Noise,74,4,1,0.7120710999879519,1
2414,55,Larynx,Right cTBS,Cons,Noise,75,1,0,1.92758150000009,1
2415,55,Larynx,Right cTBS,Cons,Noise,76,3,1,0.995126900001196,1
2416,55,Larynx,Right cTBS,Cons,Noise,77,1,0,0.700889899992035,1
2417,55,Larynx,Right cTBS,Cons,Noise,78,3,1,0.51639430000796,1
2418,55,Larynx,Right cTBS,Cons,Noise,79,5,1,1.0557938999991199,1
2419,55,Larynx,Right cTBS,Cons,Noise,80,2,0,0.6929137000115589,1
2420,55,Larynx,Right cTBS,Cons,Noise,81,4,0,1.16745189999347,1
2421,55,Larynx,Right cTBS,Cons,Noise,82,3,1,0.7289990999997829,1
2422,55,Larynx,Right cTBS,Cons,Noise,83,5,1,0.883081699998002,1
2423,55,Larynx,Right cTBS,Cons,Noise,84,1,0,1.22581030000583,1
2424,55,Larynx,Right cTBS,Cons,Noise,85,4,1,0.7436127999972092,1
2425,55,Larynx,Right cTBS,Cons,Noise,86,5,1,0.6892903999978439,1
2426,55,Larynx,Right cTBS,Cons,Noise,87,2,1,0.7994042000063929,1
2427,55,Larynx,Right cTBS,Cons,Noise,88,5,0,0.646430900000269,1
2428,55,Larynx,Right cTBS,Cons,Noise,89,5,1,1.3775803000025901,1
2429,55,Larynx,Right cTBS,Cons,Noise,90,3,1,0.9177262999874071,1
2430,55,Larynx,Right cTBS,Cons,Noise,91,4,0,0.604108799991081,1
2431,55,Larynx,Right cTBS,Cons,Noise,92,3,1,0.706883699996979,1
2432,55,Larynx,Right cTBS,Cons,Noise,93,3,1,1.41334759999882,1
2433,55,Larynx,Right cTBS,Cons,Noise,94,4,0,0.6947588000039101,1
2434,55,Larynx,Right cTBS,Cons,Noise,95,1,1,1.72042460000375,1
2435,55,Larynx,Right cTBS,Cons,Noise,96,1,0,0.795039899996482,1
2436,55,Larynx,Right cTBS,Cons,Noise,97,4,1,0.793912799999816,1
2437,55,Larynx,Right cTBS,Cons,Noise,98,2,1,0.579999499997939,1
2438,55,Larynx,Right cTBS,Cons,Noise,99,2,1,1.06971930000873,1
2439,55,Larynx,Right cTBS,Cons,Noise,100,3,1,1.1861218000121898,1
2440,55,Larynx,Right cTBS,Cons,Noise,101,3,0,0.72740019999037,1
2441,55,Larynx,Right cTBS,Cons,Noise,102,1,0,0.5825485999957889,1
2442,55,Larynx,Right cTBS,Cons,Noise,103,4,1,0.556232700007968,1
2443,55,Larynx,Right cTBS,Cons,Noise,104,3,0,0.845745400001761,1
2444,55,Larynx,Right cTBS,Cons,Noise,105,2,1,0.550214499991853,1
2445,55,Larynx,Right cTBS,Cons,Noise,106,2,0,0.63426900000195,1
2446,55,Larynx,Right cTBS,Cons,Noise,107,4,1,0.6300283000018679,1
2447,55,Larynx,Right cTBS,Cons,Noise,108,3,1,0.7575496999925241,1
2448,55,Larynx,Right cTBS,Cons,Noise,109,4,0,0.625854400001117,1
2449,55,Larynx,Right cTBS,Cons,Noise,110,1,0,0.879976299998816,1
2450,55,Larynx,Right cTBS,Cons,Noise,111,1,0,0.495841399999335,1
2451,55,Larynx,Right cTBS,Cons,Noise,112,2,1,1.56376520000049,1
2452,55,Larynx,Right cTBS,Cons,Noise,113,2,1,1.57874129999254,1
2453,55,Larynx,Right cTBS,Cons,Noise,114,3,0,1.3009068000101298,1
2454,55,Larynx,Right cTBS,Cons,Noise,115,3,0,0.828801399999065,1
2455,55,Larynx,Right cTBS,Cons,Noise,116,5,1,0.9271292999910659,1
2456,55,Larynx,Right cTBS,Cons,Noise,117,3,1,0.6839536999905251,1
2457,55,Larynx,Right cTBS,Cons,Noise,118,5,1,0.784108000007109,1
2458,55,Larynx,Right cTBS,Cons,Noise,119,3,1,0.9108325999986852,1
2459,55,Larynx,Right cTBS,Cons,Noise,120,1,1,1.51297029999841,1
2460,55,Larynx,Right cTBS,Cons,Noise,121,2,0,0.8387361999921271,1
2461,55,Larynx,Right cTBS,Cons,Noise,122,3,0,0.858256699997582,1
2462,55,Larynx,Right cTBS,Cons,Noise,123,4,1,1.7813460000033998,1
2463,55,Larynx,Right cTBS,Cons,Noise,124,3,1,0.767952199996216,1
2464,55,Larynx,Right cTBS,Cons,Noise,125,4,1,1.24932579998858,1
2465,55,Larynx,Right cTBS,Cons,Noise,126,3,1,0.7324632999952879,1
2466,55,Larynx,Right cTBS,Cons,Noise,127,3,0,0.7811452999885659,1
2467,55,Larynx,Right cTBS,Cons,Noise,128,5,1,0.9398195999965541,1
2468,55,Larynx,Right cTBS,Cons,Noise,129,2,1,3.39444369998819,1
2469,55,Larynx,Right cTBS,Cons,Noise,130,4,1,0.8726857000001469,1
2470,55,Larynx,Right cTBS,Cons,Noise,131,3,1,0.9551343000057391,1
2471,55,Larynx,Right cTBS,Cons,Noise,132,1,0,0.604208999997354,1
2472,55,Larynx,Right cTBS,Cons,Noise,133,2,1,0.7421328000054929,1
2473,55,Larynx,Right cTBS,Cons,Noise,134,1,1,0.9069165999972031,1
2474,55,Larynx,Right cTBS,Cons,Noise,135,4,0,1.1465514000010402,1
2475,55,Larynx,Right cTBS,Cons,Noise,136,2,0,1.54791600001045,1
2476,55,Larynx,Right cTBS,Cons,Noise,137,2,0,1.25792049999291,1
2477,55,Larynx,Right cTBS,Cons,Noise,138,1,1,0.9406929999968271,1
2478,55,Larynx,Right cTBS,Cons,Noise,139,4,1,1.0966960000078,1
2479,55,Larynx,Right cTBS,Cons,Noise,140,3,0,0.0008969000045908619,1
2480,55,Larynx,Right cTBS,Cons,Noise,141,5,0,1.8681194999953703,1
2481,55,Larynx,Right cTBS,Cons,Noise,142,2,1,0.7486720000015341,1
2482,55,Larynx,Right cTBS,Cons,Noise,143,3,1,0.5668444000039019,1
2483,55,Larynx,Right cTBS,Cons,Noise,144,3,1,0.9051834999991121,1
2484,55,Larynx,Right cTBS,Cons,Noise,145,5,1,0.656115200006752,1
2485,55,Larynx,Right cTBS,Cons,Noise,146,1,1,0.49936220000381604,1
2486,55,Larynx,Right cTBS,Cons,Noise,147,5,1,0.48454279999714295,1
2487,55,Larynx,Right cTBS,Cons,Noise,148,4,1,0.542657800004235,1
2488,55,Larynx,Right cTBS,Cons,Noise,149,3,0,0.7959166000073309,1
2489,55,Larynx,Right cTBS,Cons,Noise,150,4,1,0.57207809999818,1
2490,55,Larynx,Right cTBS,Cons,Noise,151,2,1,1.14204089999839,1
2491,55,Larynx,Right cTBS,Cons,Noise,152,1,1,1.2442352999933102,1
2492,55,Larynx,Right cTBS,Cons,Noise,153,3,0,0.6655268000031359,1
2493,55,Larynx,Right cTBS,Cons,Noise,154,2,1,0.673210500011919,1
2494,55,Larynx,Right cTBS,Cons,Noise,155,4,1,0.7737679999991091,1
2495,55,Larynx,Right cTBS,Cons,Noise,156,5,0,1.20253490000323,1
2964,55,Larynx,Sham,Cons,Noise,1,3,0,1.5307869000826002,1
2965,55,Larynx,Sham,Cons,Noise,2,4,1,0.6821456999750811,1
2966,55,Larynx,Sham,Cons,Noise,3,4,1,0.658868899918161,1
2967,55,Larynx,Sham,Cons,Noise,4,5,1,0.6469414000166579,1
2968,55,Larynx,Sham,Cons,Noise,5,4,1,0.62145530001726,1
2969,55,Larynx,Sham,Cons,Noise,6,4,0,0.5319529999978839,1
2970,55,Larynx,Sham,Cons,Noise,7,5,0,0.71343949995935,1
2971,55,Larynx,Sham,Cons,Noise,8,5,1,0.49909990001469895,1
2972,55,Larynx,Sham,Cons,Noise,9,1,0,0.503549999906681,1
2973,55,Larynx,Sham,Cons,Noise,10,3,1,0.48702460003551096,1
2974,55,Larynx,Sham,Cons,Noise,11,5,1,0.8237498999806121,1
2975,55,Larynx,Sham,Cons,Noise,12,2,0,0.482698799925856,1
2976,55,Larynx,Sham,Cons,Noise,13,3,1,0.537001100019552,1
2977,55,Larynx,Sham,Cons,Noise,14,1,0,0.48370779992546903,1
2978,55,Larynx,Sham,Cons,Noise,15,1,1,0.49290080007631304,1
2979,55,Larynx,Sham,Cons,Noise,16,2,0,0.582844799966551,1
2980,55,Larynx,Sham,Cons,Noise,17,3,1,0.52484640001785,1
2981,55,Larynx,Sham,Cons,Noise,18,1,0,0.753753899945877,1
2982,55,Larynx,Sham,Cons,Noise,19,3,1,0.7051534999627621,1
2983,55,Larynx,Sham,Cons,Noise,20,3,1,0.6509593999944631,1
2984,55,Larynx,Sham,Cons,Noise,21,3,0,0.622055899933912,1
2985,55,Larynx,Sham,Cons,Noise,22,4,1,0.464599599945359,1
2986,55,Larynx,Sham,Cons,Noise,23,4,1,0.678987700026482,1
2987,55,Larynx,Sham,Cons,Noise,24,5,1,0.565542099997401,1
2988,55,Larynx,Sham,Cons,Noise,25,3,1,0.566953699919395,1
2989,55,Larynx,Sham,Cons,Noise,26,3,1,0.7364814000902701,1
2990,55,Larynx,Sham,Cons,Noise,27,3,1,0.48162820003926793,1
2991,55,Larynx,Sham,Cons,Noise,28,1,0,0.517724800040014,1
2992,55,Larynx,Sham,Cons,Noise,29,4,1,0.47455649997573296,1
2993,55,Larynx,Sham,Cons,Noise,30,2,1,0.662513299961574,1
2994,55,Larynx,Sham,Cons,Noise,31,2,1,0.846782799926586,1
2995,55,Larynx,Sham,Cons,Noise,32,3,1,0.519919599988498,1
2996,55,Larynx,Sham,Cons,Noise,33,4,1,0.8943163000512869,1
2997,55,Larynx,Sham,Cons,Noise,34,5,1,0.592016999959014,1
2998,55,Larynx,Sham,Cons,Noise,35,2,1,0.6112741000251839,1
2999,55,Larynx,Sham,Cons,Noise,36,2,1,0.6967818000121041,1
3000,55,Larynx,Sham,Cons,Noise,37,2,0,0.5979539999971171,1
3001,55,Larynx,Sham,Cons,Noise,38,1,0,0.612666400033049,1
3002,55,Larynx,Sham,Cons,Noise,39,2,1,0.53074319998268,1
3003,55,Larynx,Sham,Cons,Noise,40,4,1,0.516306400066242,1
3004,55,Larynx,Sham,Cons,Noise,41,3,0,1.15840950002894,1
3005,55,Larynx,Sham,Cons,Noise,42,4,1,0.787510799942538,1
3006,55,Larynx,Sham,Cons,Noise,43,1,0,0.6617557000136,1
3007,55,Larynx,Sham,Cons,Noise,44,1,0,0.71685399999842,1
3008,55,Larynx,Sham,Cons,Noise,45,2,1,0.7057427000254392,1
3009,55,Larynx,Sham,Cons,Noise,46,4,1,0.547556199948303,1
3010,55,Larynx,Sham,Cons,Noise,47,4,1,0.578619100037031,1
3011,55,Larynx,Sham,Cons,Noise,48,5,1,0.667144199949689,1
3012,55,Larynx,Sham,Cons,Noise,49,4,1,0.820698500028811,1
3013,55,Larynx,Sham,Cons,Noise,50,2,0,0.725479799904861,1
3014,55,Larynx,Sham,Cons,Noise,51,1,0,0.690131500014104,1
3015,55,Larynx,Sham,Cons,Noise,52,3,1,0.682829300058074,1
3016,55,Larynx,Sham,Cons,Noise,53,5,1,0.666599899996072,1
3017,55,Larynx,Sham,Cons,Noise,54,2,1,0.9784353999421,1
3018,55,Larynx,Sham,Cons,Noise,55,2,0,0.8164500000420959,1
3019,55,Larynx,Sham,Cons,Noise,56,3,1,0.719150200020522,1
3020,55,Larynx,Sham,Cons,Noise,57,5,1,0.739570299978368,1
3021,55,Larynx,Sham,Cons,Noise,58,3,0,0.678393499925733,1
3022,55,Larynx,Sham,Cons,Noise,59,3,1,0.630099799949676,1
3023,55,Larynx,Sham,Cons,Noise,60,2,1,0.771972800022922,1
3024,55,Larynx,Sham,Cons,Noise,61,3,1,0.7075641000410541,1
3025,55,Larynx,Sham,Cons,Noise,62,4,1,0.8816059000091631,1
3026,55,Larynx,Sham,Cons,Noise,63,3,0,0.6928621999686579,1
3027,55,Larynx,Sham,Cons,Noise,64,5,1,1.4291567999171102,1
3028,55,Larynx,Sham,Cons,Noise,65,3,1,0.932141899946146,1
3029,55,Larynx,Sham,Cons,Noise,66,3,0,1.12818849994801,1
3030,55,Larynx,Sham,Cons,Noise,67,4,1,1.0199495999841,1
3031,55,Larynx,Sham,Cons,Noise,68,1,0,0.8284651999128979,1
3032,55,Larynx,Sham,Cons,Noise,69,3,0,0.8511536000296469,1
3033,55,Larynx,Sham,Cons,Noise,70,5,1,0.730682100052945,1
3034,55,Larynx,Sham,Cons,Noise,71,3,1,1.19798270007595,1
3035,55,Larynx,Sham,Cons,Noise,72,4,0,2.34898810007144,1
3036,55,Larynx,Sham,Cons,Noise,73,5,1,0.680964199942537,1
3037,55,Larynx,Sham,Cons,Noise,74,2,0,0.717610500054434,1
3038,55,Larynx,Sham,Cons,Noise,75,1,0,0.5912231999682261,1
3039,55,Larynx,Sham,Cons,Noise,76,2,0,0.599850500002503,1
3040,55,Larynx,Sham,Cons,Noise,77,1,0,0.662809599889442,1
3041,55,Larynx,Sham,Cons,Noise,78,2,1,0.8253241999773309,1
3042,55,Larynx,Sham,Cons,Noise,79,5,1,0.703555700019933,1
3043,55,Larynx,Sham,Cons,Noise,80,2,0,0.5959268999285999,1
3044,55,Larynx,Sham,Cons,Noise,81,2,0,0.8908233999973159,1
3045,55,Larynx,Sham,Cons,Noise,82,2,1,1.5969076999463099,1
3046,55,Larynx,Sham,Cons,Noise,83,4,1,0.775763800018467,1
3047,55,Larynx,Sham,Cons,Noise,84,2,0,0.7285356000065799,1
3048,55,Larynx,Sham,Cons,Noise,85,2,0,2.48500959994271,1
3049,55,Larynx,Sham,Cons,Noise,86,1,0,0.766181799932383,1
3050,55,Larynx,Sham,Cons,Noise,87,5,1,0.8949987998930741,1
3051,55,Larynx,Sham,Cons,Noise,88,5,1,0.7133462999481709,1
3052,55,Larynx,Sham,Cons,Noise,89,3,0,1.07265850005206,1
3053,55,Larynx,Sham,Cons,Noise,90,3,1,0.9192121999803929,1
3054,55,Larynx,Sham,Cons,Noise,91,3,1,0.680175399989821,1
3055,55,Larynx,Sham,Cons,Noise,92,4,1,0.6647099000401789,1
3056,55,Larynx,Sham,Cons,Noise,93,4,1,0.673506099963561,1
3057,55,Larynx,Sham,Cons,Noise,94,5,1,0.660587299964391,1
3058,55,Larynx,Sham,Cons,Noise,95,4,1,0.591025899979286,1
3059,55,Larynx,Sham,Cons,Noise,96,5,1,0.7355561000294979,1
3060,55,Larynx,Sham,Cons,Noise,97,1,0,0.614329000003636,1
3061,55,Larynx,Sham,Cons,Noise,98,3,1,0.66858699999284,1
3062,55,Larynx,Sham,Cons,Noise,99,1,0,0.6719857000280172,1
3063,55,Larynx,Sham,Cons,Noise,100,3,1,1.01941840001382,1
3064,55,Larynx,Sham,Cons,Noise,101,1,0,2.55356090003625,1
3065,55,Larynx,Sham,Cons,Noise,102,4,1,0.738425999996252,1
3066,55,Larynx,Sham,Cons,Noise,103,3,0,0.7448549000546341,1
3067,55,Larynx,Sham,Cons,Noise,104,4,1,0.57066559989471,1
3068,55,Larynx,Sham,Cons,Noise,105,2,1,1.25289070000872,1
3069,55,Larynx,Sham,Cons,Noise,106,3,1,0.647669299971312,1
3070,55,Larynx,Sham,Cons,Noise,107,3,1,0.616101999999955,1
3071,55,Larynx,Sham,Cons,Noise,108,5,0,0.697021400090307,1
3072,55,Larynx,Sham,Cons,Noise,109,3,1,0.549885700107552,1
3073,55,Larynx,Sham,Cons,Noise,110,2,0,2.17760609998368,1
3074,55,Larynx,Sham,Cons,Noise,111,1,0,0.769778499961831,1
3075,55,Larynx,Sham,Cons,Noise,112,4,1,0.676096100010909,1
3076,55,Larynx,Sham,Cons,Noise,113,3,1,1.02865899994504,1
3077,55,Larynx,Sham,Cons,Noise,114,4,1,0.723657199996524,1
3078,55,Larynx,Sham,Cons,Noise,115,1,0,0.5962907000212,1
3079,55,Larynx,Sham,Cons,Noise,116,2,1,0.6238134000450369,1
3080,55,Larynx,Sham,Cons,Noise,117,3,1,0.9349468000000342,1
3081,55,Larynx,Sham,Cons,Noise,118,1,0,2.44618370011449,1
3082,55,Larynx,Sham,Cons,Noise,119,3,1,0.677113799960352,1
3083,55,Larynx,Sham,Cons,Noise,120,1,0,0.6911825001006949,1
3084,55,Larynx,Sham,Cons,Noise,121,3,1,0.577202999964356,1
3085,55,Larynx,Sham,Cons,Noise,122,2,0,0.666769899893552,1
3086,55,Larynx,Sham,Cons,Noise,123,4,1,1.42497000005096,1
3087,55,Larynx,Sham,Cons,Noise,124,4,1,0.724727199994959,1
3088,55,Larynx,Sham,Cons,Noise,125,3,1,0.645452699973248,1
3089,55,Larynx,Sham,Cons,Noise,126,3,1,1.29093769995961,1
3090,55,Larynx,Sham,Cons,Noise,127,2,1,1.46082190005109,1
3091,55,Larynx,Sham,Cons,Noise,128,4,1,0.637649500044063,1
3092,55,Larynx,Sham,Cons,Noise,129,5,1,0.603837099974044,1
3093,55,Larynx,Sham,Cons,Noise,130,2,0,0.59561289998237,1
3094,55,Larynx,Sham,Cons,Noise,131,1,0,0.6933199999621139,1
3095,55,Larynx,Sham,Cons,Noise,132,2,1,0.718388000037521,1
3096,55,Larynx,Sham,Cons,Noise,133,5,1,1.5220328000141299,1
3097,55,Larynx,Sham,Cons,Noise,134,3,1,0.9235856999875981,1
3098,55,Larynx,Sham,Cons,Noise,135,3,1,4.00040370004717,1
3099,55,Larynx,Sham,Cons,Noise,136,3,1,0.6542557999491689,1
3100,55,Larynx,Sham,Cons,Noise,137,2,1,0.596438399981707,1
3101,55,Larynx,Sham,Cons,Noise,138,3,0,0.6156042999355121,1
3102,55,Larynx,Sham,Cons,Noise,139,4,1,0.440215799957514,1
3103,55,Larynx,Sham,Cons,Noise,140,3,1,0.6647974000079561,1
3104,55,Larynx,Sham,Cons,Noise,141,4,0,0.904145500040613,1
3105,55,Larynx,Sham,Cons,Noise,142,1,1,1.8800201999256398,1
3106,55,Larynx,Sham,Cons,Noise,143,5,1,2.20679900003597,1
3107,55,Larynx,Sham,Cons,Noise,144,2,0,0.6883681999752299,1
3108,55,Larynx,Sham,Cons,Noise,145,3,1,1.21195610007271,1
3109,55,Larynx,Sham,Cons,Noise,146,4,1,0.834877700079232,1
3110,55,Larynx,Sham,Cons,Noise,147,1,0,0.5634677000343801,1
3111,55,Larynx,Sham,Cons,Noise,148,1,0,0.602815399994142,1
3112,55,Larynx,Sham,Cons,Noise,149,2,0,0.689122999901883,1
3113,55,Larynx,Sham,Cons,Noise,150,5,1,0.662343900068663,1
3114,55,Larynx,Sham,Cons,Noise,151,5,1,0.7509035000111909,1
3115,55,Larynx,Sham,Cons,Noise,152,5,1,0.5842617000453171,1
3116,55,Larynx,Sham,Cons,Noise,153,4,0,0.8468583000358191,1
3117,55,Larynx,Sham,Cons,Noise,154,3,0,0.6682752000633629,1
3118,55,Larynx,Sham,Cons,Noise,155,2,1,0.5926437999587509,1
3119,55,Larynx,Sham,Cons,Noise,156,4,1,0.897828799905255,1
5460,104,Larynx,Right cTBS,Cons,Noise,1,4,0,0.8342810999602079,1
5461,104,Larynx,Right cTBS,Cons,Noise,2,2,1,0.614303199981805,1
5462,104,Larynx,Right cTBS,Cons,Noise,3,4,0,0.615409600024577,1
5463,104,Larynx,Right cTBS,Cons,Noise,4,1,0,0.6070704000303521,1
5464,104,Larynx,Right cTBS,Cons,Noise,5,1,0,0.574948899971787,1
5465,104,Larynx,Right cTBS,Cons,Noise,6,3,0,0.5683443999732839,1
5466,104,Larynx,Right cTBS,Cons,Noise,7,2,1,0.6535646999836899,1
5467,104,Larynx,Right cTBS,Cons,Noise,8,2,0,0.7803336000069979,1
5468,104,Larynx,Right cTBS,Cons,Noise,9,2,0,0.7589311000192541,1
5469,104,Larynx,Right cTBS,Cons,Noise,10,2,1,0.6650129000190649,1
5470,104,Larynx,Right cTBS,Cons,Noise,11,4,1,0.672029999957886,1
5471,104,Larynx,Right cTBS,Cons,Noise,12,2,1,0.7276555999997071,1
5472,104,Larynx,Right cTBS,Cons,Noise,13,3,0,0.677185400039889,1
5473,104,Larynx,Right cTBS,Cons,Noise,14,3,0,0.6458075999980789,1
5474,104,Larynx,Right cTBS,Cons,Noise,15,3,0,0.612736700044479,1
5475,104,Larynx,Right cTBS,Cons,Noise,16,1,0,0.632442900037859,1
5476,104,Larynx,Right cTBS,Cons,Noise,17,4,1,0.7198315999703481,1
5477,104,Larynx,Right cTBS,Cons,Noise,18,5,1,0.7204374999855649,1
5478,104,Larynx,Right cTBS,Cons,Noise,19,4,0,0.6037575000082139,1
5479,104,Larynx,Right cTBS,Cons,Noise,20,5,1,0.795549299975391,1
5480,104,Larynx,Right cTBS,Cons,Noise,21,3,0,0.637521600001492,1
5481,104,Larynx,Right cTBS,Cons,Noise,22,1,1,0.668863099999726,1
5482,104,Larynx,Right cTBS,Cons,Noise,23,3,0,0.6316183999879289,1
5483,104,Larynx,Right cTBS,Cons,Noise,24,1,0,0.805261700006668,1
5484,104,Larynx,Right cTBS,Cons,Noise,25,3,0,0.6546704000211321,1
5485,104,Larynx,Right cTBS,Cons,Noise,26,5,1,0.5905456000473349,1
5486,104,Larynx,Right cTBS,Cons,Noise,27,5,1,0.838635199994314,1
5487,104,Larynx,Right cTBS,Cons,Noise,28,4,0,0.6452539000310941,1
5488,104,Larynx,Right cTBS,Cons,Noise,29,3,1,0.608683799975552,1
5489,104,Larynx,Right cTBS,Cons,Noise,30,3,0,0.6128223999985489,1
5490,104,Larynx,Right cTBS,Cons,Noise,31,2,1,0.5625252000172621,1
5491,104,Larynx,Right cTBS,Cons,Noise,32,1,0,0.586570200044662,1
5492,104,Larynx,Right cTBS,Cons,Noise,33,5,1,0.7256430999841541,1
5493,104,Larynx,Right cTBS,Cons,Noise,34,5,1,0.601486900006421,1
5494,104,Larynx,Right cTBS,Cons,Noise,35,4,1,0.571248800028116,1
5495,104,Larynx,Right cTBS,Cons,Noise,36,3,1,0.5954440999776129,1
5496,104,Larynx,Right cTBS,Cons,Noise,37,3,0,0.57661069999449,1
5497,104,Larynx,Right cTBS,Cons,Noise,38,4,0,0.5681388999801129,1
5498,104,Larynx,Right cTBS,Cons,Noise,39,2,0,0.585450700018555,1
5499,104,Larynx,Right cTBS,Cons,Noise,40,3,0,0.638074899965432,1
5500,104,Larynx,Right cTBS,Cons,Noise,41,4,1,0.658668900025077,1
5501,104,Larynx,Right cTBS,Cons,Noise,42,2,1,0.558796200028155,1
5502,104,Larynx,Right cTBS,Cons,Noise,43,5,1,0.654367999988608,1
5503,104,Larynx,Right cTBS,Cons,Noise,44,2,1,0.574649400019553,1
5504,104,Larynx,Right cTBS,Cons,Noise,45,3,1,0.540893899975345,1
5505,104,Larynx,Right cTBS,Cons,Noise,46,2,1,0.587186800024938,1
5506,104,Larynx,Right cTBS,Cons,Noise,47,5,1,0.612725499959197,1
5507,104,Larynx,Right cTBS,Cons,Noise,48,1,0,0.592940700007603,1
5508,104,Larynx,Right cTBS,Cons,Noise,49,3,1,0.6409628000110389,1
5509,104,Larynx,Right cTBS,Cons,Noise,50,4,0,0.8443418000242672,1
5510,104,Larynx,Right cTBS,Cons,Noise,51,3,1,0.8285801000311039,1
5511,104,Larynx,Right cTBS,Cons,Noise,52,5,1,0.6456944000092341,1
5512,104,Larynx,Right cTBS,Cons,Noise,53,4,1,0.536609500006307,1
5513,104,Larynx,Right cTBS,Cons,Noise,54,4,1,0.547127400001045,1
5514,104,Larynx,Right cTBS,Cons,Noise,55,2,1,0.570708499988541,1
5515,104,Larynx,Right cTBS,Cons,Noise,56,4,0,0.514811699977145,1
5516,104,Larynx,Right cTBS,Cons,Noise,57,3,0,0.60843979998026,1
5517,104,Larynx,Right cTBS,Cons,Noise,58,1,0,0.737819400033914,1
5518,104,Larynx,Right cTBS,Cons,Noise,59,2,0,0.674354499962647,1
5519,104,Larynx,Right cTBS,Cons,Noise,60,3,0,0.7277309999917629,1
5520,104,Larynx,Right cTBS,Cons,Noise,61,5,1,0.663169700012077,1
5521,104,Larynx,Right cTBS,Cons,Noise,62,4,1,0.58208119997289,1
5522,104,Larynx,Right cTBS,Cons,Noise,63,1,0,0.5620378999738019,1
5523,104,Larynx,Right cTBS,Cons,Noise,64,5,1,0.6480628999997861,1
5524,104,Larynx,Right cTBS,Cons,Noise,65,2,0,0.80069280002499,1
5525,104,Larynx,Right cTBS,Cons,Noise,66,3,1,0.552493199997116,1
5526,104,Larynx,Right cTBS,Cons,Noise,67,1,0,0.5125682000070809,1
5527,104,Larynx,Right cTBS,Cons,Noise,68,4,0,0.49838689999887703,1
5528,104,Larynx,Right cTBS,Cons,Noise,69,1,0,0.5727710999781271,1
5529,104,Larynx,Right cTBS,Cons,Noise,70,1,0,0.6590932999970389,1
5530,104,Larynx,Right cTBS,Cons,Noise,71,3,0,0.7180386999971229,1
5531,104,Larynx,Right cTBS,Cons,Noise,72,5,1,0.634054499969352,1
5532,104,Larynx,Right cTBS,Cons,Noise,73,2,1,0.7869683000026271,1
5533,104,Larynx,Right cTBS,Cons,Noise,74,4,1,0.6256509000086229,1
5534,104,Larynx,Right cTBS,Cons,Noise,75,2,1,0.53905159997521,1
5535,104,Larynx,Right cTBS,Cons,Noise,76,3,0,0.57255179999629,1
5536,104,Larynx,Right cTBS,Cons,Noise,77,3,0,0.540501399955247,1
5537,104,Larynx,Right cTBS,Cons,Noise,78,3,0,0.682380400015973,1
5538,104,Larynx,Right cTBS,Cons,Noise,79,2,1,0.644831699959468,1
5539,104,Larynx,Right cTBS,Cons,Noise,80,4,1,0.5706457999767739,1
5540,104,Larynx,Right cTBS,Cons,Noise,81,4,0,0.730960499960929,1
5541,104,Larynx,Right cTBS,Cons,Noise,82,2,0,0.6185785999987271,1
5542,104,Larynx,Right cTBS,Cons,Noise,83,3,1,0.6102030000183729,1
5543,104,Larynx,Right cTBS,Cons,Noise,84,3,0,0.654765199986286,1
5544,104,Larynx,Right cTBS,Cons,Noise,85,1,0,0.703126799955498,1
5545,104,Larynx,Right cTBS,Cons,Noise,86,4,0,0.563765800034162,1
5546,104,Larynx,Right cTBS,Cons,Noise,87,3,1,0.619570999988355,1
5547,104,Larynx,Right cTBS,Cons,Noise,88,2,0,0.587212099984754,1
5548,104,Larynx,Right cTBS,Cons,Noise,89,5,1,0.613407699973322,1
5549,104,Larynx,Right cTBS,Cons,Noise,90,1,0,0.628112900012638,1
5550,104,Larynx,Right cTBS,Cons,Noise,91,5,1,0.567739600024652,1
5551,104,Larynx,Right cTBS,Cons,Noise,92,4,0,0.6857872999971729,1
5552,104,Larynx,Right cTBS,Cons,Noise,93,3,0,0.661065199994482,1
5553,104,Larynx,Right cTBS,Cons,Noise,94,1,0,0.6313609000062571,1
5554,104,Larynx,Right cTBS,Cons,Noise,95,5,1,0.667175000009593,1
5555,104,Larynx,Right cTBS,Cons,Noise,96,3,1,0.657893800002057,1
5556,104,Larynx,Right cTBS,Cons,Noise,97,4,0,0.5133274000254461,1
5557,104,Larynx,Right cTBS,Cons,Noise,98,3,0,0.6203646000358279,1
5558,104,Larynx,Right cTBS,Cons,Noise,99,2,0,0.536662300000899,1
5559,104,Larynx,Right cTBS,Cons,Noise,100,3,1,0.54546609998215,1
5560,104,Larynx,Right cTBS,Cons,Noise,101,3,0,0.5566906000021851,1
5561,104,Larynx,Right cTBS,Cons,Noise,102,2,0,0.484996800019871,1
5562,104,Larynx,Right cTBS,Cons,Noise,103,5,0,0.5232466000015851,1
5563,104,Larynx,Right cTBS,Cons,Noise,104,5,0,0.557028899958823,1
5564,104,Larynx,Right cTBS,Cons,Noise,105,1,0,0.601186399988364,1
5565,104,Larynx,Right cTBS,Cons,Noise,106,3,0,0.688488699961454,1
5566,104,Larynx,Right cTBS,Cons,Noise,107,4,1,0.568369899992831,1
5567,104,Larynx,Right cTBS,Cons,Noise,108,2,1,0.5172355000395329,1
5568,104,Larynx,Right cTBS,Cons,Noise,109,3,0,0.531882699986454,1
5569,104,Larynx,Right cTBS,Cons,Noise,110,3,0,0.510311299993191,1
5570,104,Larynx,Right cTBS,Cons,Noise,111,2,1,0.693340900004841,1
5571,104,Larynx,Right cTBS,Cons,Noise,112,1,0,0.505290400004014,1
5572,104,Larynx,Right cTBS,Cons,Noise,113,4,1,0.6123190999496729,1
5573,104,Larynx,Right cTBS,Cons,Noise,114,5,1,0.7199016999802551,1
5574,104,Larynx,Right cTBS,Cons,Noise,115,1,0,0.666297000017948,1
5575,104,Larynx,Right cTBS,Cons,Noise,116,2,1,0.506423700018786,1
5576,104,Larynx,Right cTBS,Cons,Noise,117,4,1,0.59396420000121,1
5577,104,Larynx,Right cTBS,Cons,Noise,118,3,0,0.586678899999242,1
5578,104,Larynx,Right cTBS,Cons,Noise,119,4,1,0.647152199991979,1
5579,104,Larynx,Right cTBS,Cons,Noise,120,2,1,0.6908564999466761,1
5580,104,Larynx,Right cTBS,Cons,Noise,121,1,0,0.525994799972977,1
5581,104,Larynx,Right cTBS,Cons,Noise,122,1,0,0.809415499970783,1
5582,104,Larynx,Right cTBS,Cons,Noise,123,3,0,0.8369775000028309,1
5583,104,Larynx,Right cTBS,Cons,Noise,124,3,0,0.671042900008615,1
5584,104,Larynx,Right cTBS,Cons,Noise,125,5,1,0.686963499989361,1
5585,104,Larynx,Right cTBS,Cons,Noise,126,5,1,0.6937770000076852,1
5586,104,Larynx,Right cTBS,Cons,Noise,127,3,0,0.549975500034634,1
5587,104,Larynx,Right cTBS,Cons,Noise,128,3,0,0.574717399955262,1
5588,104,Larynx,Right cTBS,Cons,Noise,129,3,0,0.7967008999548849,1
5589,104,Larynx,Right cTBS,Cons,Noise,130,4,1,0.59165670000948,1
5590,104,Larynx,Right cTBS,Cons,Noise,131,2,0,0.527664199995343,1
5591,104,Larynx,Right cTBS,Cons,Noise,132,3,1,0.6210405000019821,1
5592,104,Larynx,Right cTBS,Cons,Noise,133,4,1,0.763807800016366,1
5593,104,Larynx,Right cTBS,Cons,Noise,134,5,1,0.672964199970011,1
5594,104,Larynx,Right cTBS,Cons,Noise,135,4,0,0.6361168000148609,1
5595,104,Larynx,Right cTBS,Cons,Noise,136,5,1,0.6876022000215021,1
5596,104,Larynx,Right cTBS,Cons,Noise,137,3,0,0.670410599966999,1
5597,104,Larynx,Right cTBS,Cons,Noise,138,2,0,0.7185455999569971,1
5598,104,Larynx,Right cTBS,Cons,Noise,139,3,0,0.6914875999791551,1
5599,104,Larynx,Right cTBS,Cons,Noise,140,4,0,0.6237041999702341,1
5600,104,Larynx,Right cTBS,Cons,Noise,141,1,0,0.618864400021266,1
5601,104,Larynx,Right cTBS,Cons,Noise,142,1,0,0.637286700017285,1
5602,104,Larynx,Right cTBS,Cons,Noise,143,2,0,0.558054800028913,1
5603,104,Larynx,Right cTBS,Cons,Noise,144,2,0,0.572846100025345,1
5604,104,Larynx,Right cTBS,Cons,Noise,145,5,1,0.5997433000011371,1
5605,104,Larynx,Right cTBS,Cons,Noise,146,4,1,0.5920995000051329,1
5606,104,Larynx,Right cTBS,Cons,Noise,147,2,1,0.714459599985275,1
5607,104,Larynx,Right cTBS,Cons,Noise,148,4,1,0.58937150001293,1
5608,104,Larynx,Right cTBS,Cons,Noise,149,2,0,0.48513129999628296,1
5609,104,Larynx,Right cTBS,Cons,Noise,150,3,0,0.525270399986766,1
5610,104,Larynx,Right cTBS,Cons,Noise,151,1,0,0.509491699980572,1
5611,104,Larynx,Right cTBS,Cons,Noise,152,1,0,0.561453000002075,1
5612,104,Larynx,Right cTBS,Cons,Noise,153,3,0,0.515742999967188,1
5613,104,Larynx,Right cTBS,Cons,Noise,154,4,0,0.46035729994764596,1
5614,104,Larynx,Right cTBS,Cons,Noise,155,2,1,0.479974999965634,1
5615,104,Larynx,Right cTBS,Cons,Noise,156,5,1,0.5689425999880771,1
6084,104,Larynx,Sham,Cons,Noise,1,3,1,0.7045690999948421,1
6085,104,Larynx,Sham,Cons,Noise,2,4,0,0.634262199979275,1
6086,104,Larynx,Sham,Cons,Noise,3,4,0,0.5703164000296971,1
6087,104,Larynx,Sham,Cons,Noise,4,5,0,0.599460900004487,1
6088,104,Larynx,Sham,Cons,Noise,5,4,0,0.511945899983402,1
6089,104,Larynx,Sham,Cons,Noise,6,4,0,0.603185699961614,1
6090,104,Larynx,Sham,Cons,Noise,7,5,0,0.527800299983937,1
6091,104,Larynx,Sham,Cons,Noise,8,5,0,0.58426709997002,1
6092,104,Larynx,Sham,Cons,Noise,9,1,0,0.5979781000060029,1
6093,104,Larynx,Sham,Cons,Noise,10,3,1,0.534125999954995,1
6094,104,Larynx,Sham,Cons,Noise,11,5,0,0.620738499972504,1
6095,104,Larynx,Sham,Cons,Noise,12,2,1,0.6293386000324971,1
6096,104,Larynx,Sham,Cons,Noise,13,3,0,0.7168330000131391,1
6097,104,Larynx,Sham,Cons,Noise,14,1,0,0.46161960001336405,1
6098,104,Larynx,Sham,Cons,Noise,15,1,0,0.530113900022116,1
6099,104,Larynx,Sham,Cons,Noise,16,2,0,0.494081200042274,1
6100,104,Larynx,Sham,Cons,Noise,17,3,1,0.533794199989643,1
6101,104,Larynx,Sham,Cons,Noise,18,1,0,0.51757909997832,1
6102,104,Larynx,Sham,Cons,Noise,19,3,0,0.45426359999692106,1
6103,104,Larynx,Sham,Cons,Noise,20,3,0,0.44711270002881104,1
6104,104,Larynx,Sham,Cons,Noise,21,3,1,0.628207800036762,1
6105,104,Larynx,Sham,Cons,Noise,22,4,0,0.440477399970405,1
6106,104,Larynx,Sham,Cons,Noise,23,4,0,0.5962762000272049,1
6107,104,Larynx,Sham,Cons,Noise,24,5,0,0.42224909999640703,1
6108,104,Larynx,Sham,Cons,Noise,25,3,1,0.530301199993119,1
6109,104,Larynx,Sham,Cons,Noise,26,3,0,0.632508200011216,1
6110,104,Larynx,Sham,Cons,Noise,27,3,0,0.6550667000119571,1
6111,104,Larynx,Sham,Cons,Noise,28,1,0,0.45015330001479,1
6112,104,Larynx,Sham,Cons,Noise,29,4,0,0.5230055000283761,1
6113,104,Larynx,Sham,Cons,Noise,30,2,1,0.543967099976726,1
6114,104,Larynx,Sham,Cons,Noise,31,2,1,0.5515941999619829,1
6115,104,Larynx,Sham,Cons,Noise,32,3,0,0.537191899958998,1
6116,104,Larynx,Sham,Cons,Noise,33,4,1,0.501836399955209,1
6117,104,Larynx,Sham,Cons,Noise,34,5,1,0.528931399981957,1
6118,104,Larynx,Sham,Cons,Noise,35,2,1,0.44477000000188105,1
6119,104,Larynx,Sham,Cons,Noise,36,2,0,0.459890900005121,1
6120,104,Larynx,Sham,Cons,Noise,37,2,0,0.5159979000454771,1
6121,104,Larynx,Sham,Cons,Noise,38,1,1,0.553571099997498,1
6122,104,Larynx,Sham,Cons,Noise,39,2,1,0.779230100044515,1
6123,104,Larynx,Sham,Cons,Noise,40,4,0,0.5388267000089401,1
6124,104,Larynx,Sham,Cons,Noise,41,3,1,0.534894999989774,1
6125,104,Larynx,Sham,Cons,Noise,42,4,0,0.539222899999004,1
6126,104,Larynx,Sham,Cons,Noise,43,1,0,0.47255900001619006,1
6127,104,Larynx,Sham,Cons,Noise,44,1,0,0.45865779998712203,1
6128,104,Larynx,Sham,Cons,Noise,45,2,0,0.502764799981378,1
6129,104,Larynx,Sham,Cons,Noise,46,4,1,0.552478400000837,1
6130,104,Larynx,Sham,Cons,Noise,47,4,1,0.6155131999985309,1
6131,104,Larynx,Sham,Cons,Noise,48,5,0,0.527389099996071,1
6132,104,Larynx,Sham,Cons,Noise,49,4,0,0.472957799967844,1
6133,104,Larynx,Sham,Cons,Noise,50,2,0,0.483382100006565,1
6134,104,Larynx,Sham,Cons,Noise,51,1,0,0.45825669995974705,1
6135,104,Larynx,Sham,Cons,Noise,52,3,0,0.45981019997270794,1
6136,104,Larynx,Sham,Cons,Noise,53,5,1,0.534039199992549,1
6137,104,Larynx,Sham,Cons,Noise,54,2,0,0.437905700004194,1
6138,104,Larynx,Sham,Cons,Noise,55,2,1,0.42867920000571796,1
6139,104,Larynx,Sham,Cons,Noise,56,3,0,0.52454700000817,1
6140,104,Larynx,Sham,Cons,Noise,57,5,1,0.5682513000210749,1
6141,104,Larynx,Sham,Cons,Noise,58,3,0,0.47677070001373106,1
6142,104,Larynx,Sham,Cons,Noise,59,3,1,0.47844120004447205,1
6143,104,Larynx,Sham,Cons,Noise,60,2,0,0.542068700015079,1
6144,104,Larynx,Sham,Cons,Noise,61,3,0,0.44582880003145003,1
6145,104,Larynx,Sham,Cons,Noise,62,4,1,0.6243189999950121,1
6146,104,Larynx,Sham,Cons,Noise,63,3,0,0.511955499998294,1
6147,104,Larynx,Sham,Cons,Noise,64,5,0,0.429022299998906,1
6148,104,Larynx,Sham,Cons,Noise,65,3,0,0.556059200025629,1
6149,104,Larynx,Sham,Cons,Noise,66,3,1,0.5630203000037,1
6150,104,Larynx,Sham,Cons,Noise,67,4,1,0.637968500028364,1
6151,104,Larynx,Sham,Cons,Noise,68,1,0,0.457292900013272,1
6152,104,Larynx,Sham,Cons,Noise,69,3,1,0.515682599972934,1
6153,104,Larynx,Sham,Cons,Noise,70,5,0,0.42332499998156,1
6154,104,Larynx,Sham,Cons,Noise,71,3,0,0.514826600032393,1
6155,104,Larynx,Sham,Cons,Noise,72,4,0,0.5344845000072379,1
6156,104,Larynx,Sham,Cons,Noise,73,5,1,0.48898859997279903,1
6157,104,Larynx,Sham,Cons,Noise,74,2,0,0.482253200025298,1
6158,104,Larynx,Sham,Cons,Noise,75,1,0,0.591645699983928,1
6159,104,Larynx,Sham,Cons,Noise,76,2,0,0.591217699984554,1
6160,104,Larynx,Sham,Cons,Noise,77,1,1,0.561980600003153,1
6161,104,Larynx,Sham,Cons,Noise,78,2,0,0.5519636999815699,1
6162,104,Larynx,Sham,Cons,Noise,79,5,0,0.357279099989682,1
6163,104,Larynx,Sham,Cons,Noise,80,2,0,0.493081099994015,1
6164,104,Larynx,Sham,Cons,Noise,81,2,0,0.554301299969666,1
6165,104,Larynx,Sham,Cons,Noise,82,2,1,0.555633499985561,1
6166,104,Larynx,Sham,Cons,Noise,83,4,0,0.466396099945996,1
6167,104,Larynx,Sham,Cons,Noise,84,2,0,0.502558099979069,1
6168,104,Larynx,Sham,Cons,Noise,85,2,0,0.5941675000358371,1
6169,104,Larynx,Sham,Cons,Noise,86,1,0,0.601374100020621,1
6170,104,Larynx,Sham,Cons,Noise,87,5,1,0.508793399960268,1
6171,104,Larynx,Sham,Cons,Noise,88,5,0,0.457331000012346,1
6172,104,Larynx,Sham,Cons,Noise,89,3,0,0.438295900006779,1
6173,104,Larynx,Sham,Cons,Noise,90,3,1,0.47956039995187894,1
6174,104,Larynx,Sham,Cons,Noise,91,3,0,0.48083079996286,1
6175,104,Larynx,Sham,Cons,Noise,92,4,0,0.41261810000287397,1
6176,104,Larynx,Sham,Cons,Noise,93,4,0,0.429835400020238,1
6177,104,Larynx,Sham,Cons,Noise,94,5,0,0.5059906999813389,1
6178,104,Larynx,Sham,Cons,Noise,95,4,1,0.659797900007106,1
6179,104,Larynx,Sham,Cons,Noise,96,5,0,0.5132905000355089,1
6180,104,Larynx,Sham,Cons,Noise,97,1,0,0.5569985000183809,1
6181,104,Larynx,Sham,Cons,Noise,98,3,1,0.5106844999827439,1
6182,104,Larynx,Sham,Cons,Noise,99,1,0,0.5829418000066651,1
6183,104,Larynx,Sham,Cons,Noise,100,3,0,0.518174399971031,1
6184,104,Larynx,Sham,Cons,Noise,101,1,0,0.48493139998754503,1
6185,104,Larynx,Sham,Cons,Noise,102,4,0,0.479815999977291,1
6186,104,Larynx,Sham,Cons,Noise,103,3,1,0.527302199974656,1
6187,104,Larynx,Sham,Cons,Noise,104,4,0,0.530944800004363,1
6188,104,Larynx,Sham,Cons,Noise,105,2,0,0.46577080001588894,1
6189,104,Larynx,Sham,Cons,Noise,106,3,0,0.49391679995460397,1
6190,104,Larynx,Sham,Cons,Noise,107,3,1,0.624888199963607,1
6191,104,Larynx,Sham,Cons,Noise,108,5,1,0.519102799997199,1
6192,104,Larynx,Sham,Cons,Noise,109,3,0,0.5277508999570271,1
6193,104,Larynx,Sham,Cons,Noise,110,2,1,0.44157199998153396,1
6194,104,Larynx,Sham,Cons,Noise,111,1,1,0.535268299980089,1
6195,104,Larynx,Sham,Cons,Noise,112,4,1,0.550816199975088,1
6196,104,Larynx,Sham,Cons,Noise,113,3,1,0.46919809997780204,1
6197,104,Larynx,Sham,Cons,Noise,114,4,1,0.47575400001369395,1
6198,104,Larynx,Sham,Cons,Noise,115,1,0,0.599771199980751,1
6199,104,Larynx,Sham,Cons,Noise,116,2,0,0.5917376999859699,1
6200,104,Larynx,Sham,Cons,Noise,117,3,1,0.43823280005017295,1
6201,104,Larynx,Sham,Cons,Noise,118,1,0,0.544654599973001,1
6202,104,Larynx,Sham,Cons,Noise,119,3,1,0.33843790000537394,1
6203,104,Larynx,Sham,Cons,Noise,120,1,0,0.546127800014801,1
6204,104,Larynx,Sham,Cons,Noise,121,3,1,0.42572310002287894,1
6205,104,Larynx,Sham,Cons,Noise,122,2,0,0.514027600002009,1
6206,104,Larynx,Sham,Cons,Noise,123,4,1,0.501942200004123,1
6207,104,Larynx,Sham,Cons,Noise,124,4,1,0.49466529994970204,1
6208,104,Larynx,Sham,Cons,Noise,125,3,1,0.413927000015974,1
6209,104,Larynx,Sham,Cons,Noise,126,3,0,0.481450100021902,1
6210,104,Larynx,Sham,Cons,Noise,127,2,1,0.46849230001680603,1
6211,104,Larynx,Sham,Cons,Noise,128,4,0,0.6142665999941529,1
6212,104,Larynx,Sham,Cons,Noise,129,5,1,0.489970700000413,1
6213,104,Larynx,Sham,Cons,Noise,130,2,0,0.5460037000011649,1
6214,104,Larynx,Sham,Cons,Noise,131,1,0,0.586930599994957,1
6215,104,Larynx,Sham,Cons,Noise,132,2,1,0.505853400041815,1
6216,104,Larynx,Sham,Cons,Noise,133,5,0,0.589659099990968,1
6217,104,Larynx,Sham,Cons,Noise,134,3,0,0.5287172999815081,1
6218,104,Larynx,Sham,Cons,Noise,135,3,0,0.656450099952053,1
6219,104,Larynx,Sham,Cons,Noise,136,3,1,0.47566120000556106,1
6220,104,Larynx,Sham,Cons,Noise,137,2,0,0.606983600009698,1
6221,104,Larynx,Sham,Cons,Noise,138,3,0,0.506654200027697,1
6222,104,Larynx,Sham,Cons,Noise,139,4,1,0.5446915000211451,1
6223,104,Larynx,Sham,Cons,Noise,140,3,0,0.48069389996817297,1
6224,104,Larynx,Sham,Cons,Noise,141,4,1,0.574376399978064,1
6225,104,Larynx,Sham,Cons,Noise,142,1,0,0.5443946999730539,1
6226,104,Larynx,Sham,Cons,Noise,143,5,0,0.484956400003284,1
6227,104,Larynx,Sham,Cons,Noise,144,2,0,0.49901450000470504,1
6228,104,Larynx,Sham,Cons,Noise,145,3,0,0.62965230003465,1
6229,104,Larynx,Sham,Cons,Noise,146,4,1,0.6098899000207889,1
6230,104,Larynx,Sham,Cons,Noise,147,1,0,0.546970000024885,1
6231,104,Larynx,Sham,Cons,Noise,148,1,0,0.53007479995722,1
6232,104,Larynx,Sham,Cons,Noise,149,2,0,0.583951300010085,1
6233,104,Larynx,Sham,Cons,Noise,150,5,1,0.519449100014754,1
6234,104,Larynx,Sham,Cons,Noise,151,5,1,0.5844054999761279,1
6235,104,Larynx,Sham,Cons,Noise,152,5,1,0.464420700038318,1
6236,104,Larynx,Sham,Cons,Noise,153,4,0,0.7181364999851211,1
6237,104,Larynx,Sham,Cons,Noise,154,3,1,0.530419800023083,1
6238,104,Larynx,Sham,Cons,Noise,155,2,1,0.447187699959613,1
6239,104,Larynx,Sham,Cons,Noise,156,4,0,0.503069400030654,1
8580,123,Larynx,Right cTBS,Cons,Noise,1,3,1,1.5150082000764098,1
8581,123,Larynx,Right cTBS,Cons,Noise,2,3,1,0.6928967999992889,1
8582,123,Larynx,Right cTBS,Cons,Noise,3,1,0,0.593396499985829,1
8583,123,Larynx,Right cTBS,Cons,Noise,4,2,0,0.66011910000816,1
8584,123,Larynx,Right cTBS,Cons,Noise,5,4,1,0.426684000063688,1
8585,123,Larynx,Right cTBS,Cons,Noise,6,2,1,0.462860399973579,1
8586,123,Larynx,Right cTBS,Cons,Noise,7,1,0,0.483003700035624,1
8587,123,Larynx,Right cTBS,Cons,Noise,8,5,1,0.5818369999760761,1
8588,123,Larynx,Right cTBS,Cons,Noise,9,4,1,0.49769800005015,1
8589,123,Larynx,Right cTBS,Cons,Noise,10,2,1,0.4371740999631579,1
8590,123,Larynx,Right cTBS,Cons,Noise,11,1,0,0.5459677999606359,1
8591,123,Larynx,Right cTBS,Cons,Noise,12,1,0,0.8737803000258281,1
8592,123,Larynx,Right cTBS,Cons,Noise,13,4,1,0.47975260007660797,1
8593,123,Larynx,Right cTBS,Cons,Noise,14,3,1,0.42107739998027705,1
8594,123,Larynx,Right cTBS,Cons,Noise,15,3,1,0.5270882999757299,1
8595,123,Larynx,Right cTBS,Cons,Noise,16,5,1,0.5539524999912829,1
8596,123,Larynx,Right cTBS,Cons,Noise,17,4,1,0.6488399000372739,1
8597,123,Larynx,Right cTBS,Cons,Noise,18,2,1,0.673435500008054,1
8598,123,Larynx,Right cTBS,Cons,Noise,19,2,1,0.820665800012648,1
8599,123,Larynx,Right cTBS,Cons,Noise,20,4,1,0.670798699953593,1
8600,123,Larynx,Right cTBS,Cons,Noise,21,2,0,0.41573869995772794,1
8601,123,Larynx,Right cTBS,Cons,Noise,22,3,1,0.524202500004321,1
8602,123,Larynx,Right cTBS,Cons,Noise,23,5,1,0.510119399987161,1
8603,123,Larynx,Right cTBS,Cons,Noise,24,1,0,0.621204599970952,1
8604,123,Larynx,Right cTBS,Cons,Noise,25,1,0,0.7113305999664591,1
8605,123,Larynx,Right cTBS,Cons,Noise,26,3,1,0.5158780999481679,1
8606,123,Larynx,Right cTBS,Cons,Noise,27,3,1,0.45046159997582397,1
8607,123,Larynx,Right cTBS,Cons,Noise,28,5,1,0.5692906000185761,1
8608,123,Larynx,Right cTBS,Cons,Noise,29,4,1,0.8458070000633601,1
8609,123,Larynx,Right cTBS,Cons,Noise,30,2,1,0.6193472000304611,1
8610,123,Larynx,Right cTBS,Cons,Noise,31,3,1,0.5999004000332211,1
8611,123,Larynx,Right cTBS,Cons,Noise,32,4,1,0.4850667999126021,1
8612,123,Larynx,Right cTBS,Cons,Noise,33,3,0,0.7926324999425559,1
8613,123,Larynx,Right cTBS,Cons,Noise,34,3,1,0.7803402000572529,1
8614,123,Larynx,Right cTBS,Cons,Noise,35,2,0,1.26853830006439,1
8615,123,Larynx,Right cTBS,Cons,Noise,36,5,1,0.5385629000375051,1
8616,123,Larynx,Right cTBS,Cons,Noise,37,5,1,0.667494399938732,1
8617,123,Larynx,Right cTBS,Cons,Noise,38,4,1,0.622271799948066,1
8618,123,Larynx,Right cTBS,Cons,Noise,39,3,1,0.707457400043495,1
8619,123,Larynx,Right cTBS,Cons,Noise,40,2,0,0.8407985999947409,1
8620,123,Larynx,Right cTBS,Cons,Noise,41,3,1,0.681240800069645,1
8621,123,Larynx,Right cTBS,Cons,Noise,42,3,1,0.922256500110962,1
8622,123,Larynx,Right cTBS,Cons,Noise,43,5,1,0.631176299997605,1
8623,123,Larynx,Right cTBS,Cons,Noise,44,1,0,0.5938334999373179,1
8624,123,Larynx,Right cTBS,Cons,Noise,45,2,1,0.43890880001708904,1
8625,123,Larynx,Right cTBS,Cons,Noise,46,2,1,0.650803799973801,1
8626,123,Larynx,Right cTBS,Cons,Noise,47,5,1,0.547297200071625,1
8627,123,Larynx,Right cTBS,Cons,Noise,48,4,1,0.45121719990856896,1
8628,123,Larynx,Right cTBS,Cons,Noise,49,3,1,0.500612500007264,1
8629,123,Larynx,Right cTBS,Cons,Noise,50,3,1,0.500813700025901,1
8630,123,Larynx,Right cTBS,Cons,Noise,51,2,1,0.53376619995106,1
8631,123,Larynx,Right cTBS,Cons,Noise,52,1,0,0.6056890999898311,1
8632,123,Larynx,Right cTBS,Cons,Noise,53,4,1,0.505073599983007,1
8633,123,Larynx,Right cTBS,Cons,Noise,54,1,0,0.713619299931452,1
8634,123,Larynx,Right cTBS,Cons,Noise,55,3,1,0.447690699947998,1
8635,123,Larynx,Right cTBS,Cons,Noise,56,4,1,0.505114099942148,1
8636,123,Larynx,Right cTBS,Cons,Noise,57,5,1,0.7897752999560909,1
8637,123,Larynx,Right cTBS,Cons,Noise,58,3,1,1.04691789997742,1
8638,123,Larynx,Right cTBS,Cons,Noise,59,3,1,0.525859500048682,1
8639,123,Larynx,Right cTBS,Cons,Noise,60,2,1,0.5630783000960949,1
8640,123,Larynx,Right cTBS,Cons,Noise,61,4,1,0.9700582999503241,1
8641,123,Larynx,Right cTBS,Cons,Noise,62,3,1,1.31063170009293,1
8642,123,Larynx,Right cTBS,Cons,Noise,63,4,1,0.652928099967539,1
8643,123,Larynx,Right cTBS,Cons,Noise,64,3,1,0.8651650000829251,1
8644,123,Larynx,Right cTBS,Cons,Noise,65,2,1,0.8998956000432371,1
8645,123,Larynx,Right cTBS,Cons,Noise,66,5,0,2.05476309999358,1
8646,123,Larynx,Right cTBS,Cons,Noise,67,2,0,0.8359722000313922,1
8647,123,Larynx,Right cTBS,Cons,Noise,68,3,1,0.545283899991773,1
8648,123,Larynx,Right cTBS,Cons,Noise,69,4,1,0.8383672999916599,1
8649,123,Larynx,Right cTBS,Cons,Noise,70,1,0,0.7716270999517291,1
8650,123,Larynx,Right cTBS,Cons,Noise,71,4,1,0.584833199973218,1
8651,123,Larynx,Right cTBS,Cons,Noise,72,4,1,0.796861800015904,1
8652,123,Larynx,Right cTBS,Cons,Noise,73,3,1,1.2233886999310901,1
8653,123,Larynx,Right cTBS,Cons,Noise,74,5,1,1.26548199995887,1
8654,123,Larynx,Right cTBS,Cons,Noise,75,2,0,0.7232345000375059,1
8655,123,Larynx,Right cTBS,Cons,Noise,76,1,0,0.5775571999838579,1
8656,123,Larynx,Right cTBS,Cons,Noise,77,1,0,0.88231499993708,1
8657,123,Larynx,Right cTBS,Cons,Noise,78,5,1,0.519527100026608,1
8658,123,Larynx,Right cTBS,Cons,Noise,79,4,1,0.426612799987197,1
8659,123,Larynx,Right cTBS,Cons,Noise,80,2,1,0.5317923000548029,1
8660,123,Larynx,Right cTBS,Cons,Noise,81,2,1,1.34208049997687,1
8661,123,Larynx,Right cTBS,Cons,Noise,82,5,1,0.7776952000567691,1
8662,123,Larynx,Right cTBS,Cons,Noise,83,5,1,0.658436400000937,1
8663,123,Larynx,Right cTBS,Cons,Noise,84,3,1,0.6464367000153289,1
8664,123,Larynx,Right cTBS,Cons,Noise,85,2,1,0.48198240005876897,1
8665,123,Larynx,Right cTBS,Cons,Noise,86,5,1,0.5359413999831301,1
8666,123,Larynx,Right cTBS,Cons,Noise,87,3,1,0.822364100022241,1
8667,123,Larynx,Right cTBS,Cons,Noise,88,2,0,0.7959569999948141,1
8668,123,Larynx,Right cTBS,Cons,Noise,89,4,1,1.53910539997742,1
8669,123,Larynx,Right cTBS,Cons,Noise,90,4,1,0.685933500062674,1
8670,123,Larynx,Right cTBS,Cons,Noise,91,3,1,1.1502860999898998,1
8671,123,Larynx,Right cTBS,Cons,Noise,92,4,1,1.01163189997897,1
8672,123,Larynx,Right cTBS,Cons,Noise,93,4,0,1.95218869997188,1
8673,123,Larynx,Right cTBS,Cons,Noise,94,5,1,0.8375986000755798,1
8674,123,Larynx,Right cTBS,Cons,Noise,95,2,1,0.52583830000367,1
8675,123,Larynx,Right cTBS,Cons,Noise,96,1,0,0.67127279995475,1
8676,123,Larynx,Right cTBS,Cons,Noise,97,3,0,0.8147087999386708,1
8677,123,Larynx,Right cTBS,Cons,Noise,98,3,1,0.45095329999458,1
8678,123,Larynx,Right cTBS,Cons,Noise,99,4,1,0.507508700015023,1
8679,123,Larynx,Right cTBS,Cons,Noise,100,1,0,0.6404660999542099,1
8680,123,Larynx,Right cTBS,Cons,Noise,101,5,1,0.42464310000650607,1
8681,123,Larynx,Right cTBS,Cons,Noise,102,3,1,0.45563490001950396,1
8682,123,Larynx,Right cTBS,Cons,Noise,103,1,1,0.437531200004742,1
8683,123,Larynx,Right cTBS,Cons,Noise,104,3,1,0.758132999995723,1
8684,123,Larynx,Right cTBS,Cons,Noise,105,1,0,0.52242000005208,1
8685,123,Larynx,Right cTBS,Cons,Noise,106,3,1,0.566273000091314,1
8686,123,Larynx,Right cTBS,Cons,Noise,107,1,0,1.91862200002652,1
8687,123,Larynx,Right cTBS,Cons,Noise,108,2,0,0.9497637000167741,1
8688,123,Larynx,Right cTBS,Cons,Noise,109,2,1,0.798267700010911,1
8689,123,Larynx,Right cTBS,Cons,Noise,110,5,1,0.9938135999254879,1
8690,123,Larynx,Right cTBS,Cons,Noise,111,3,1,0.5581290000118321,1
8691,123,Larynx,Right cTBS,Cons,Noise,112,4,1,0.642372600035742,1
8692,123,Larynx,Right cTBS,Cons,Noise,113,1,0,0.803215799969621,1
8693,123,Larynx,Right cTBS,Cons,Noise,114,3,1,0.6167699999641629,1
8694,123,Larynx,Right cTBS,Cons,Noise,115,3,1,1.134075100068,1
8695,123,Larynx,Right cTBS,Cons,Noise,116,2,0,0.943116299924441,1
8696,123,Larynx,Right cTBS,Cons,Noise,117,4,1,0.6403543000342321,1
8697,123,Larynx,Right cTBS,Cons,Noise,118,5,1,0.837478399975225,1
8698,123,Larynx,Right cTBS,Cons,Noise,119,2,0,0.782557699945755,1
8699,123,Larynx,Right cTBS,Cons,Noise,120,3,1,1.09542669996154,1
8700,123,Larynx,Right cTBS,Cons,Noise,121,2,1,0.85734039999079,1
8701,123,Larynx,Right cTBS,Cons,Noise,122,2,0,0.9415086999069899,1
8702,123,Larynx,Right cTBS,Cons,Noise,123,3,1,0.40805870003532596,1
8703,123,Larynx,Right cTBS,Cons,Noise,124,3,1,0.840418400010094,1
8704,123,Larynx,Right cTBS,Cons,Noise,125,4,1,0.877987499930896,1
8705,123,Larynx,Right cTBS,Cons,Noise,126,5,1,1.1970276000211,1
8706,123,Larynx,Right cTBS,Cons,Noise,127,4,1,1.30161229998339,1
8707,123,Larynx,Right cTBS,Cons,Noise,128,5,1,1.1599426000611899,1
8708,123,Larynx,Right cTBS,Cons,Noise,129,1,0,0.659335799980909,1
8709,123,Larynx,Right cTBS,Cons,Noise,130,1,1,0.529948800103739,1
8710,123,Larynx,Right cTBS,Cons,Noise,131,4,1,0.6553201000206171,1
8711,123,Larynx,Right cTBS,Cons,Noise,132,2,0,0.993222799967043,1
8712,123,Larynx,Right cTBS,Cons,Noise,133,3,1,0.9799602999119091,1
8713,123,Larynx,Right cTBS,Cons,Noise,134,5,1,0.7177533999783922,1
8714,123,Larynx,Right cTBS,Cons,Noise,135,4,1,1.3425266999984198,1
8715,123,Larynx,Right cTBS,Cons,Noise,136,3,1,0.994467100012116,1
8716,123,Larynx,Right cTBS,Cons,Noise,137,3,1,0.884642599965446,1
8717,123,Larynx,Right cTBS,Cons,Noise,138,3,1,1.23606409993954,1
8718,123,Larynx,Right cTBS,Cons,Noise,139,3,1,0.818430299987085,1
8719,123,Larynx,Right cTBS,Cons,Noise,140,2,1,1.34772600000724,1
8720,123,Larynx,Right cTBS,Cons,Noise,141,2,1,2.03359929996077,1
8721,123,Larynx,Right cTBS,Cons,Noise,142,1,0,0.5709082999965179,1
8722,123,Larynx,Right cTBS,Cons,Noise,143,3,1,0.5549177000066271,1
8723,123,Larynx,Right cTBS,Cons,Noise,144,4,1,0.697406299994327,1
8724,123,Larynx,Right cTBS,Cons,Noise,145,5,1,0.5815694000339139,1
8725,123,Larynx,Right cTBS,Cons,Noise,146,1,0,0.5627679000608621,1
8726,123,Larynx,Right cTBS,Cons,Noise,147,2,1,0.5435181000502779,1
8727,123,Larynx,Right cTBS,Cons,Noise,148,2,1,0.530406199977733,1
8728,123,Larynx,Right cTBS,Cons,Noise,149,4,1,0.547832300071605,1
8729,123,Larynx,Right cTBS,Cons,Noise,150,1,0,0.607489799964242,1
8730,123,Larynx,Right cTBS,Cons,Noise,151,3,0,0.723025499959476,1
8731,123,Larynx,Right cTBS,Cons,Noise,152,4,1,0.459549399907701,1
8732,123,Larynx,Right cTBS,Cons,Noise,153,4,1,0.49871549999807,1
8733,123,Larynx,Right cTBS,Cons,Noise,154,3,1,1.73395599995274,1
8734,123,Larynx,Right cTBS,Cons,Noise,155,1,0,0.791314100031741,1
8735,123,Larynx,Right cTBS,Cons,Noise,156,5,1,0.7205720000201841,1
9204,123,Larynx,Sham,Cons,Noise,1,3,0,0.5749145000008871,1
9205,123,Larynx,Sham,Cons,Noise,2,3,1,0.49060799996368604,1
9206,123,Larynx,Sham,Cons,Noise,3,5,1,0.40578799997456394,1
9207,123,Larynx,Sham,Cons,Noise,4,1,1,0.34813419997226397,1
9208,123,Larynx,Sham,Cons,Noise,5,2,0,0.601764099905267,1
9209,123,Larynx,Sham,Cons,Noise,6,3,1,0.418503599939868,1
9210,123,Larynx,Sham,Cons,Noise,7,2,1,0.4330277999397371,1
9211,123,Larynx,Sham,Cons,Noise,8,2,1,0.5405459000030529,1
9212,123,Larynx,Sham,Cons,Noise,9,5,1,0.407439499977045,1
9213,123,Larynx,Sham,Cons,Noise,10,4,1,0.37019479996524796,1
9214,123,Larynx,Sham,Cons,Noise,11,5,1,0.404152599978261,1
9215,123,Larynx,Sham,Cons,Noise,12,1,1,0.36043389991391495,1
9216,123,Larynx,Sham,Cons,Noise,13,1,0,0.667414100025781,1
9217,123,Larynx,Sham,Cons,Noise,14,4,1,0.619005399988964,1
9218,123,Larynx,Sham,Cons,Noise,15,5,1,0.420127099961974,1
9219,123,Larynx,Sham,Cons,Noise,16,2,1,0.370456299977377,1
9220,123,Larynx,Sham,Cons,Noise,17,4,1,0.535850599990226,1
9221,123,Larynx,Sham,Cons,Noise,18,4,1,0.454573300085031,1
9222,123,Larynx,Sham,Cons,Noise,19,3,1,0.403668099897914,1
9223,123,Larynx,Sham,Cons,Noise,20,3,1,0.41921209997963205,1
9224,123,Larynx,Sham,Cons,Noise,21,2,1,0.43193349998909997,1
9225,123,Larynx,Sham,Cons,Noise,22,1,1,0.596568400040269,1
9226,123,Larynx,Sham,Cons,Noise,23,4,1,0.6597997999051589,1
9227,123,Larynx,Sham,Cons,Noise,24,3,1,0.39706230000592796,1
9228,123,Larynx,Sham,Cons,Noise,25,3,1,0.44377820007503005,1
9229,123,Larynx,Sham,Cons,Noise,26,3,1,0.46475769998505706,1
9230,123,Larynx,Sham,Cons,Noise,27,1,1,0.537170900031924,1
9231,123,Larynx,Sham,Cons,Noise,28,5,1,0.758179800002836,1
9232,123,Larynx,Sham,Cons,Noise,29,2,1,0.916667100042105,1
9233,123,Larynx,Sham,Cons,Noise,30,4,1,0.45220599998719996,1
9234,123,Larynx,Sham,Cons,Noise,31,2,1,0.594741299981251,1
9235,123,Larynx,Sham,Cons,Noise,32,3,1,0.58275040006265,1
9236,123,Larynx,Sham,Cons,Noise,33,3,1,0.7752295000245791,1
9237,123,Larynx,Sham,Cons,Noise,34,2,1,0.8996630000183359,1
9238,123,Larynx,Sham,Cons,Noise,35,4,1,0.76977190002799,1
9239,123,Larynx,Sham,Cons,Noise,36,3,1,0.6667490999680009,1
9240,123,Larynx,Sham,Cons,Noise,37,5,1,0.692242500022985,1
9241,123,Larynx,Sham,Cons,Noise,38,1,0,0.5506134999450301,1
9242,123,Larynx,Sham,Cons,Noise,39,4,1,0.5951401999918741,1
9243,123,Larynx,Sham,Cons,Noise,40,5,1,0.49536900001112394,1
9244,123,Larynx,Sham,Cons,Noise,41,3,1,0.37453490006737394,1
9245,123,Larynx,Sham,Cons,Noise,42,3,1,0.366795699927025,1
9246,123,Larynx,Sham,Cons,Noise,43,4,1,0.407638200093061,1
9247,123,Larynx,Sham,Cons,Noise,44,3,1,0.617710399907082,1
9248,123,Larynx,Sham,Cons,Noise,45,4,1,0.48978259996511,1
9249,123,Larynx,Sham,Cons,Noise,46,1,0,0.5927206000778821,1
9250,123,Larynx,Sham,Cons,Noise,47,3,1,0.503121200017631,1
9251,123,Larynx,Sham,Cons,Noise,48,2,1,0.333237200044096,1
9252,123,Larynx,Sham,Cons,Noise,49,1,1,0.421525200014003,1
9253,123,Larynx,Sham,Cons,Noise,50,4,1,0.528901700046845,1
9254,123,Larynx,Sham,Cons,Noise,51,3,1,0.43242960004135994,1
9255,123,Larynx,Sham,Cons,Noise,52,3,1,0.506872299942188,1
9256,123,Larynx,Sham,Cons,Noise,53,1,1,0.5613494999706751,1
9257,123,Larynx,Sham,Cons,Noise,54,5,1,0.743958299979568,1
9258,123,Larynx,Sham,Cons,Noise,55,2,0,0.6965740000596271,1
9259,123,Larynx,Sham,Cons,Noise,56,1,1,0.42717259994242296,1
9260,123,Larynx,Sham,Cons,Noise,57,4,1,0.447671299916692,1
9261,123,Larynx,Sham,Cons,Noise,58,4,1,0.5665579999331379,1
9262,123,Larynx,Sham,Cons,Noise,59,2,1,0.65519730001688,1
9263,123,Larynx,Sham,Cons,Noise,60,2,0,0.6788152999943121,1
9264,123,Larynx,Sham,Cons,Noise,61,4,1,0.44010530004743503,1
9265,123,Larynx,Sham,Cons,Noise,62,3,1,0.3545453000115229,1
9266,123,Larynx,Sham,Cons,Noise,63,2,1,0.34657759999390697,1
9267,123,Larynx,Sham,Cons,Noise,64,3,1,0.602922599995509,1
9268,123,Larynx,Sham,Cons,Noise,65,3,1,0.705033999984153,1
9269,123,Larynx,Sham,Cons,Noise,66,5,1,1.16979100008029,1
9270,123,Larynx,Sham,Cons,Noise,67,2,0,0.745809500105679,1
9271,123,Larynx,Sham,Cons,Noise,68,2,1,0.5309423999860879,1
9272,123,Larynx,Sham,Cons,Noise,69,4,1,0.474007199984044,1
9273,123,Larynx,Sham,Cons,Noise,70,5,1,0.38277849997393804,1
9274,123,Larynx,Sham,Cons,Noise,71,1,1,0.4523830000543971,1
9275,123,Larynx,Sham,Cons,Noise,72,5,1,0.49115889996755896,1
9276,123,Larynx,Sham,Cons,Noise,73,1,0,0.859930200036615,1
9277,123,Larynx,Sham,Cons,Noise,74,4,1,0.436431699898094,1
9278,123,Larynx,Sham,Cons,Noise,75,3,1,0.40455670002847904,1
9279,123,Larynx,Sham,Cons,Noise,76,2,1,0.302622899995185,1
9280,123,Larynx,Sham,Cons,Noise,77,3,1,0.35417389997746795,1
9281,123,Larynx,Sham,Cons,Noise,78,5,1,0.325272400048561,1
9282,123,Larynx,Sham,Cons,Noise,79,4,1,0.3629865000257271,1
9283,123,Larynx,Sham,Cons,Noise,80,5,1,0.442367800045758,1
9284,123,Larynx,Sham,Cons,Noise,81,2,1,0.441872800001875,1
9285,123,Larynx,Sham,Cons,Noise,82,3,1,0.39453689998481395,1
9286,123,Larynx,Sham,Cons,Noise,83,4,1,0.505915399990045,1
9287,123,Larynx,Sham,Cons,Noise,84,4,1,0.48277600004803395,1
9288,123,Larynx,Sham,Cons,Noise,85,2,0,0.582257900037803,1
9289,123,Larynx,Sham,Cons,Noise,86,2,1,0.35027609998360304,1
9290,123,Larynx,Sham,Cons,Noise,87,3,1,0.60943060007412,1
9291,123,Larynx,Sham,Cons,Noise,88,5,1,0.60268570005428,1
9292,123,Larynx,Sham,Cons,Noise,89,1,0,0.6347506999736651,1
9293,123,Larynx,Sham,Cons,Noise,90,4,1,0.43190590001177004,1
9294,123,Larynx,Sham,Cons,Noise,91,3,1,0.414652499952354,1
9295,123,Larynx,Sham,Cons,Noise,92,1,1,0.602143600001,1
9296,123,Larynx,Sham,Cons,Noise,93,3,1,0.7869265000335871,1
9297,123,Larynx,Sham,Cons,Noise,94,3,1,0.845431299996562,1
9298,123,Larynx,Sham,Cons,Noise,95,1,0,0.743202099925838,1
9299,123,Larynx,Sham,Cons,Noise,96,2,1,0.531340999994427,1
9300,123,Larynx,Sham,Cons,Noise,97,5,1,0.48204110004007794,1
9301,123,Larynx,Sham,Cons,Noise,98,5,1,0.523449799977243,1
9302,123,Larynx,Sham,Cons,Noise,99,4,1,0.73110530001577,1
9303,123,Larynx,Sham,Cons,Noise,100,3,1,0.6646408999804411,1
9304,123,Larynx,Sham,Cons,Noise,101,3,1,0.7229957999661559,1
9305,123,Larynx,Sham,Cons,Noise,102,5,1,1.01946599991061,1
9306,123,Larynx,Sham,Cons,Noise,103,4,1,0.8576716999523342,1
9307,123,Larynx,Sham,Cons,Noise,104,3,1,0.7994716999819499,1
9308,123,Larynx,Sham,Cons,Noise,105,2,1,0.725248400005512,1
9309,123,Larynx,Sham,Cons,Noise,106,4,1,0.6734744999557729,1
9310,123,Larynx,Sham,Cons,Noise,107,1,0,0.662942499970086,1
9311,123,Larynx,Sham,Cons,Noise,108,1,0,0.754995199968107,1
9312,123,Larynx,Sham,Cons,Noise,109,3,1,0.42561040003784,1
9313,123,Larynx,Sham,Cons,Noise,110,2,1,0.9828794000204649,1
9314,123,Larynx,Sham,Cons,Noise,111,1,0,0.863552399910986,1
9315,123,Larynx,Sham,Cons,Noise,112,5,1,0.471702999901026,1
9316,123,Larynx,Sham,Cons,Noise,113,2,1,1.12964820000343,1
9317,123,Larynx,Sham,Cons,Noise,114,4,1,0.761612999951467,1
9318,123,Larynx,Sham,Cons,Noise,115,3,1,0.684766099904664,1
9319,123,Larynx,Sham,Cons,Noise,116,3,1,0.765870500006713,1
9320,123,Larynx,Sham,Cons,Noise,117,2,1,0.686005499912426,1
9321,123,Larynx,Sham,Cons,Noise,118,1,1,1.01722769998014,1
9322,123,Larynx,Sham,Cons,Noise,119,4,1,0.7502017000224441,1
9323,123,Larynx,Sham,Cons,Noise,120,4,1,0.738790499977767,1
9324,123,Larynx,Sham,Cons,Noise,121,2,0,0.633908199961297,1
9325,123,Larynx,Sham,Cons,Noise,122,1,0,0.8302498999983071,1
9326,123,Larynx,Sham,Cons,Noise,123,2,1,0.8122601000359281,1
9327,123,Larynx,Sham,Cons,Noise,124,5,1,0.613886300008744,1
9328,123,Larynx,Sham,Cons,Noise,125,4,1,0.710129700019024,1
9329,123,Larynx,Sham,Cons,Noise,126,2,1,0.738180299988016,1
9330,123,Larynx,Sham,Cons,Noise,127,3,1,0.9897296000272041,1
9331,123,Larynx,Sham,Cons,Noise,128,4,1,0.7469550999812778,1
9332,123,Larynx,Sham,Cons,Noise,129,3,1,0.8822946000145749,1
9333,123,Larynx,Sham,Cons,Noise,130,1,0,0.707439600024372,1
9334,123,Larynx,Sham,Cons,Noise,131,2,1,0.45382350008003397,1
9335,123,Larynx,Sham,Cons,Noise,132,1,1,0.542207199963741,1
9336,123,Larynx,Sham,Cons,Noise,133,3,1,0.5283772000111641,1
9337,123,Larynx,Sham,Cons,Noise,134,4,1,0.568700499949045,1
9338,123,Larynx,Sham,Cons,Noise,135,3,1,0.479161600000225,1
9339,123,Larynx,Sham,Cons,Noise,136,3,1,0.40305359999183604,1
9340,123,Larynx,Sham,Cons,Noise,137,5,1,0.444507699925452,1
9341,123,Larynx,Sham,Cons,Noise,138,2,1,0.430329800001346,1
9342,123,Larynx,Sham,Cons,Noise,139,3,1,0.431562299956568,1
9343,123,Larynx,Sham,Cons,Noise,140,2,1,0.843681700062007,1
9344,123,Larynx,Sham,Cons,Noise,141,5,1,0.604062300059013,1
9345,123,Larynx,Sham,Cons,Noise,142,3,1,0.533647200092673,1
9346,123,Larynx,Sham,Cons,Noise,143,5,1,0.5808708999538791,1
9347,123,Larynx,Sham,Cons,Noise,144,2,1,0.436040200060233,1
9348,123,Larynx,Sham,Cons,Noise,145,3,1,0.43194039992522404,1
9349,123,Larynx,Sham,Cons,Noise,146,1,0,0.630688500008546,1
9350,123,Larynx,Sham,Cons,Noise,147,3,1,0.442166600027122,1
9351,123,Larynx,Sham,Cons,Noise,148,4,1,0.33420449995901397,1
9352,123,Larynx,Sham,Cons,Noise,149,4,1,0.318872899981216,1
9353,123,Larynx,Sham,Cons,Noise,150,2,1,0.346221600077115,1
9354,123,Larynx,Sham,Cons,Noise,151,5,1,0.38558659993577704,1
9355,123,Larynx,Sham,Cons,Noise,152,3,1,0.399228999973275,1
9356,123,Larynx,Sham,Cons,Noise,153,3,1,0.523329699994065,1
9357,123,Larynx,Sham,Cons,Noise,154,5,1,0.6799737999681379,1
9358,123,Larynx,Sham,Cons,Noise,155,4,1,0.44460540008731203,1
9359,123,Larynx,Sham,Cons,Noise,156,1,1,0.45483300008345395,1
11700,139,Larynx,Right cTBS,Cons,Noise,1,5,0,0.814012400049251,1
11701,139,Larynx,Right cTBS,Cons,Noise,2,4,1,0.7356886999914419,1
11702,139,Larynx,Right cTBS,Cons,Noise,3,5,0,0.776430600031745,1
11703,139,Larynx,Right cTBS,Cons,Noise,4,1,0,0.700682799972128,1
11704,139,Larynx,Right cTBS,Cons,Noise,5,3,1,0.9058123000431809,1
11705,139,Larynx,Right cTBS,Cons,Noise,6,2,0,0.7975720000104051,1
11706,139,Larynx,Right cTBS,Cons,Noise,7,3,1,0.701225099968724,1
11707,139,Larynx,Right cTBS,Cons,Noise,8,5,0,0.778143400035333,1
11708,139,Larynx,Right cTBS,Cons,Noise,9,2,0,0.6890504999901171,1
11709,139,Larynx,Right cTBS,Cons,Noise,10,4,0,0.963440300023649,1
11710,139,Larynx,Right cTBS,Cons,Noise,11,5,1,0.7480779999750671,1
11711,139,Larynx,Right cTBS,Cons,Noise,12,2,0,0.616472800029442,1
11712,139,Larynx,Right cTBS,Cons,Noise,13,2,0,0.6741144999978129,1
11713,139,Larynx,Right cTBS,Cons,Noise,14,4,1,0.690172100032214,1
11714,139,Larynx,Right cTBS,Cons,Noise,15,1,0,0.500965799961705,1
11715,139,Larynx,Right cTBS,Cons,Noise,16,3,0,0.592414000013378,1
11716,139,Larynx,Right cTBS,Cons,Noise,17,3,1,0.614766000013333,1
11717,139,Larynx,Right cTBS,Cons,Noise,18,3,1,0.600795399979688,1
11718,139,Larynx,Right cTBS,Cons,Noise,19,5,0,0.548364699992817,1
11719,139,Larynx,Right cTBS,Cons,Noise,20,2,0,0.6580161000019871,1
11720,139,Larynx,Right cTBS,Cons,Noise,21,1,0,0.6790863000205719,1
11721,139,Larynx,Right cTBS,Cons,Noise,22,2,0,0.9425730999791991,1
11722,139,Larynx,Right cTBS,Cons,Noise,23,4,1,0.577753100020345,1
11723,139,Larynx,Right cTBS,Cons,Noise,24,3,0,0.769605599984061,1
11724,139,Larynx,Right cTBS,Cons,Noise,25,4,1,0.509675199980848,1
11725,139,Larynx,Right cTBS,Cons,Noise,26,1,0,0.528312999987975,1
11726,139,Larynx,Right cTBS,Cons,Noise,27,5,0,0.654336100036744,1
11727,139,Larynx,Right cTBS,Cons,Noise,28,1,0,0.633525600016583,1
11728,139,Larynx,Right cTBS,Cons,Noise,29,2,0,0.6819989999639801,1
11729,139,Larynx,Right cTBS,Cons,Noise,30,3,1,0.48708880000049204,1
11730,139,Larynx,Right cTBS,Cons,Noise,31,4,1,0.6026031000074,1
11731,139,Larynx,Right cTBS,Cons,Noise,32,3,0,0.6029190000263039,1
11732,139,Larynx,Right cTBS,Cons,Noise,33,1,0,0.628447199997026,1
11733,139,Larynx,Right cTBS,Cons,Noise,34,4,1,0.480373899976257,1
11734,139,Larynx,Right cTBS,Cons,Noise,35,3,1,0.52515509998193,1
11735,139,Larynx,Right cTBS,Cons,Noise,36,2,0,0.679399600019678,1
11736,139,Larynx,Right cTBS,Cons,Noise,37,3,1,0.6889636000269089,1
11737,139,Larynx,Right cTBS,Cons,Noise,38,4,0,0.597746799991,1
11738,139,Larynx,Right cTBS,Cons,Noise,39,3,1,0.610819000052288,1
11739,139,Larynx,Right cTBS,Cons,Noise,40,4,0,0.542802200012375,1
11740,139,Larynx,Right cTBS,Cons,Noise,41,2,1,0.570990999985952,1
11741,139,Larynx,Right cTBS,Cons,Noise,42,2,0,0.47203820000868296,1
11742,139,Larynx,Right cTBS,Cons,Noise,43,3,1,0.7054211999638941,1
11743,139,Larynx,Right cTBS,Cons,Noise,44,3,0,0.49389230000087997,1
11744,139,Larynx,Right cTBS,Cons,Noise,45,3,1,0.45336450001923395,1
11745,139,Larynx,Right cTBS,Cons,Noise,46,4,0,0.36266069998964706,1
11746,139,Larynx,Right cTBS,Cons,Noise,47,1,0,0.749886300007347,1
11747,139,Larynx,Right cTBS,Cons,Noise,48,1,0,0.734125500021037,1
11748,139,Larynx,Right cTBS,Cons,Noise,49,2,1,0.646590299962554,1
11749,139,Larynx,Right cTBS,Cons,Noise,50,2,0,0.5825188999879171,1
11750,139,Larynx,Right cTBS,Cons,Noise,51,4,1,0.6652351000229829,1
11751,139,Larynx,Right cTBS,Cons,Noise,52,5,0,0.561343800043687,1
11752,139,Larynx,Right cTBS,Cons,Noise,53,5,0,0.776056199974846,1
11753,139,Larynx,Right cTBS,Cons,Noise,54,3,1,0.545149500016123,1
11754,139,Larynx,Right cTBS,Cons,Noise,55,2,0,0.571787699998822,1
11755,139,Larynx,Right cTBS,Cons,Noise,56,4,1,0.660089900018647,1
11756,139,Larynx,Right cTBS,Cons,Noise,57,1,0,0.5720555000007149,1
11757,139,Larynx,Right cTBS,Cons,Noise,58,1,0,0.836624099989422,1
11758,139,Larynx,Right cTBS,Cons,Noise,59,3,1,0.664281199977268,1
11759,139,Larynx,Right cTBS,Cons,Noise,60,3,0,0.49421420000726396,1
11760,139,Larynx,Right cTBS,Cons,Noise,61,2,0,0.626744200009853,1
11761,139,Larynx,Right cTBS,Cons,Noise,62,5,1,0.5303574000136,1
11762,139,Larynx,Right cTBS,Cons,Noise,63,4,0,0.599647500028368,1
11763,139,Larynx,Right cTBS,Cons,Noise,64,5,1,0.704981399991084,1
11764,139,Larynx,Right cTBS,Cons,Noise,65,3,0,0.64114130003145,1
11765,139,Larynx,Right cTBS,Cons,Noise,66,4,0,0.9395982000278309,1
11766,139,Larynx,Right cTBS,Cons,Noise,67,3,1,0.623009700037073,1
11767,139,Larynx,Right cTBS,Cons,Noise,68,1,0,0.6700405000010511,1
11768,139,Larynx,Right cTBS,Cons,Noise,69,5,0,0.7237153999740259,1
11769,139,Larynx,Right cTBS,Cons,Noise,70,1,1,0.729124799952842,1
11770,139,Larynx,Right cTBS,Cons,Noise,71,3,0,0.637734399992041,1
11771,139,Larynx,Right cTBS,Cons,Noise,72,5,0,1.20599510002648,1
11772,139,Larynx,Right cTBS,Cons,Noise,73,3,1,0.9869407000369391,1
11773,139,Larynx,Right cTBS,Cons,Noise,74,3,1,0.916479200008325,1
11774,139,Larynx,Right cTBS,Cons,Noise,75,2,1,0.953452099987771,1
11775,139,Larynx,Right cTBS,Cons,Noise,76,4,0,0.47848230000818104,1
11776,139,Larynx,Right cTBS,Cons,Noise,77,2,0,0.62863589997869,1
11777,139,Larynx,Right cTBS,Cons,Noise,78,4,1,0.478565700002946,1
11778,139,Larynx,Right cTBS,Cons,Noise,79,2,0,0.641917799948715,1
11779,139,Larynx,Right cTBS,Cons,Noise,80,3,1,0.6459376999991949,1
11780,139,Larynx,Right cTBS,Cons,Noise,81,5,0,0.688397399964742,1
11781,139,Larynx,Right cTBS,Cons,Noise,82,4,0,0.70352699997602,1
11782,139,Larynx,Right cTBS,Cons,Noise,83,1,0,0.8864333999808879,1
11783,139,Larynx,Right cTBS,Cons,Noise,84,2,1,0.559853700047825,1
11784,139,Larynx,Right cTBS,Cons,Noise,85,5,0,0.829673999978695,1
11785,139,Larynx,Right cTBS,Cons,Noise,86,1,0,0.729399700008798,1
11786,139,Larynx,Right cTBS,Cons,Noise,87,3,1,0.7177877000067379,1
11787,139,Larynx,Right cTBS,Cons,Noise,88,1,0,0.73647110001184,1
11788,139,Larynx,Right cTBS,Cons,Noise,89,3,1,1.27281310001854,1
11789,139,Larynx,Right cTBS,Cons,Noise,90,1,0,0.6034833000157961,1
11790,139,Larynx,Right cTBS,Cons,Noise,91,4,0,0.929410699987784,1
11791,139,Larynx,Right cTBS,Cons,Noise,92,5,1,0.71563839999726,1
11792,139,Larynx,Right cTBS,Cons,Noise,93,4,1,0.6982043000170961,1
11793,139,Larynx,Right cTBS,Cons,Noise,94,4,0,0.9695662999874909,1
11794,139,Larynx,Right cTBS,Cons,Noise,95,5,1,0.6858209000201899,1
11795,139,Larynx,Right cTBS,Cons,Noise,96,2,0,0.6982182000065219,1
11796,139,Larynx,Right cTBS,Cons,Noise,97,2,1,0.8001416000188329,1
11797,139,Larynx,Right cTBS,Cons,Noise,98,5,0,0.927589599974453,1
11798,139,Larynx,Right cTBS,Cons,Noise,99,3,0,0.813200199976563,1
11799,139,Larynx,Right cTBS,Cons,Noise,100,3,1,0.883779200026765,1
11800,139,Larynx,Right cTBS,Cons,Noise,101,4,1,0.666030299966224,1
11801,139,Larynx,Right cTBS,Cons,Noise,102,2,0,0.743141899991315,1
11802,139,Larynx,Right cTBS,Cons,Noise,103,2,1,0.7606946000014431,1
11803,139,Larynx,Right cTBS,Cons,Noise,104,1,0,0.6138813000288791,1
11804,139,Larynx,Right cTBS,Cons,Noise,105,4,1,0.545723199960776,1
11805,139,Larynx,Right cTBS,Cons,Noise,106,3,0,0.5317711000097921,1
11806,139,Larynx,Right cTBS,Cons,Noise,107,3,0,0.7655793000012641,1
11807,139,Larynx,Right cTBS,Cons,Noise,108,3,1,0.5931796000222679,1
11808,139,Larynx,Right cTBS,Cons,Noise,109,4,0,0.707454400020652,1
11809,139,Larynx,Right cTBS,Cons,Noise,110,5,1,0.549434599990491,1
11810,139,Larynx,Right cTBS,Cons,Noise,111,2,0,0.551556500024162,1
11811,139,Larynx,Right cTBS,Cons,Noise,112,2,0,0.7533604000345799,1
11812,139,Larynx,Right cTBS,Cons,Noise,113,3,1,0.6046394000295551,1
11813,139,Larynx,Right cTBS,Cons,Noise,114,3,0,0.7049720999784771,1
11814,139,Larynx,Right cTBS,Cons,Noise,115,3,1,0.634520100022201,1
11815,139,Larynx,Right cTBS,Cons,Noise,116,1,0,0.6776471000048331,1
11816,139,Larynx,Right cTBS,Cons,Noise,117,4,1,0.6103774999501179,1
11817,139,Larynx,Right cTBS,Cons,Noise,118,2,0,0.6291095999768,1
11818,139,Larynx,Right cTBS,Cons,Noise,119,4,0,0.9748260000487791,1
11819,139,Larynx,Right cTBS,Cons,Noise,120,2,1,0.5507140999543481,1
11820,139,Larynx,Right cTBS,Cons,Noise,121,3,0,0.701734899950679,1
11821,139,Larynx,Right cTBS,Cons,Noise,122,2,0,0.7185332000372,1
11822,139,Larynx,Right cTBS,Cons,Noise,123,5,1,0.616335699975025,1
11823,139,Larynx,Right cTBS,Cons,Noise,124,3,1,0.647493300028145,1
11824,139,Larynx,Right cTBS,Cons,Noise,125,5,0,0.605912800005171,1
11825,139,Larynx,Right cTBS,Cons,Noise,126,4,1,0.6047783999820239,1
11826,139,Larynx,Right cTBS,Cons,Noise,127,4,0,0.6092624000157231,1
11827,139,Larynx,Right cTBS,Cons,Noise,128,1,1,0.9826281000277959,1
11828,139,Larynx,Right cTBS,Cons,Noise,129,3,1,0.904258399968967,1
11829,139,Larynx,Right cTBS,Cons,Noise,130,5,0,0.483847600000445,1
11830,139,Larynx,Right cTBS,Cons,Noise,131,4,1,0.7864353000186379,1
11831,139,Larynx,Right cTBS,Cons,Noise,132,2,0,0.5883008000091651,1
11832,139,Larynx,Right cTBS,Cons,Noise,133,3,0,0.8121510000200941,1
11833,139,Larynx,Right cTBS,Cons,Noise,134,2,1,0.5926490999991071,1
11834,139,Larynx,Right cTBS,Cons,Noise,135,5,0,0.590650500031188,1
11835,139,Larynx,Right cTBS,Cons,Noise,136,3,0,0.875726600002963,1
11836,139,Larynx,Right cTBS,Cons,Noise,137,3,0,0.6828765000100251,1
11837,139,Larynx,Right cTBS,Cons,Noise,138,2,1,0.6023825000156651,1
11838,139,Larynx,Right cTBS,Cons,Noise,139,1,0,0.664724199974444,1
11839,139,Larynx,Right cTBS,Cons,Noise,140,4,0,1.2320332999806898,1
11840,139,Larynx,Right cTBS,Cons,Noise,141,1,0,0.7577351999934759,1
11841,139,Larynx,Right cTBS,Cons,Noise,142,3,1,0.5572649000096129,1
11842,139,Larynx,Right cTBS,Cons,Noise,143,4,0,0.689648900006432,1
11843,139,Larynx,Right cTBS,Cons,Noise,144,4,1,0.9554545000428329,1
11844,139,Larynx,Right cTBS,Cons,Noise,145,1,0,0.7065440999576821,1
11845,139,Larynx,Right cTBS,Cons,Noise,146,2,0,0.812836700002663,1
11846,139,Larynx,Right cTBS,Cons,Noise,147,3,1,0.7159968999912959,1
11847,139,Larynx,Right cTBS,Cons,Noise,148,5,0,0.9472251000115649,1
11848,139,Larynx,Right cTBS,Cons,Noise,149,4,1,0.8821005999925551,1
11849,139,Larynx,Right cTBS,Cons,Noise,150,5,0,0.6307374000316489,1
11850,139,Larynx,Right cTBS,Cons,Noise,151,3,0,0.7626841000164859,1
11851,139,Larynx,Right cTBS,Cons,Noise,152,2,1,0.7312493000063109,1
11852,139,Larynx,Right cTBS,Cons,Noise,153,3,0,0.585353700036649,1
11853,139,Larynx,Right cTBS,Cons,Noise,154,3,1,0.751086100004613,1
11854,139,Larynx,Right cTBS,Cons,Noise,155,1,0,0.610893899982329,1
11855,139,Larynx,Right cTBS,Cons,Noise,156,1,0,1.1935896999784699,1
12324,139,Larynx,Sham,Cons,Noise,1,3,0,0.9110518000015869,1
12325,139,Larynx,Sham,Cons,Noise,2,3,0,1.04257049999433,1
12326,139,Larynx,Sham,Cons,Noise,3,5,1,0.779261099996802,1
12327,139,Larynx,Sham,Cons,Noise,4,1,0,0.6092513000039621,1
12328,139,Larynx,Sham,Cons,Noise,5,2,0,0.855757600002107,1
12329,139,Larynx,Sham,Cons,Noise,6,3,1,0.6486449000003629,1
12330,139,Larynx,Sham,Cons,Noise,7,2,0,0.659676700001,1
12331,139,Larynx,Sham,Cons,Noise,8,2,0,0.5399001999976459,1
12332,139,Larynx,Sham,Cons,Noise,9,5,0,0.7532875000033531,1
12333,139,Larynx,Sham,Cons,Noise,10,4,1,0.626859800002421,1
12334,139,Larynx,Sham,Cons,Noise,11,5,0,0.675837199996749,1
12335,139,Larynx,Sham,Cons,Noise,12,1,0,0.6801493000020861,1
12336,139,Larynx,Sham,Cons,Noise,13,1,0,0.8345283000016929,1
12337,139,Larynx,Sham,Cons,Noise,14,4,1,0.5742343000019899,1
12338,139,Larynx,Sham,Cons,Noise,15,5,1,1.02788769999461,1
12339,139,Larynx,Sham,Cons,Noise,16,2,0,0.578668499998457,1
12340,139,Larynx,Sham,Cons,Noise,17,4,0,0.527675100005581,1
12341,139,Larynx,Sham,Cons,Noise,18,4,0,0.908719300001394,1
12342,139,Larynx,Sham,Cons,Noise,19,3,1,0.7304697999934431,1
12343,139,Larynx,Sham,Cons,Noise,20,3,1,0.6828562000009699,1
12344,139,Larynx,Sham,Cons,Noise,21,2,0,0.573678699998709,1
12345,139,Larynx,Sham,Cons,Noise,22,1,0,0.44668130000354705,1
12346,139,Larynx,Sham,Cons,Noise,23,4,0,0.8882991999998922,1
12347,139,Larynx,Sham,Cons,Noise,24,3,0,0.730717899998126,1
12348,139,Larynx,Sham,Cons,Noise,25,3,1,0.585226799994416,1
12349,139,Larynx,Sham,Cons,Noise,26,3,1,1.45940210000117,1
12350,139,Larynx,Sham,Cons,Noise,27,1,0,0.497756200005824,1
12351,139,Larynx,Sham,Cons,Noise,28,5,0,0.7697221999987959,1
12352,139,Larynx,Sham,Cons,Noise,29,2,0,0.90937169999961,1
12353,139,Larynx,Sham,Cons,Noise,30,4,1,0.632348399994953,1
12354,139,Larynx,Sham,Cons,Noise,31,2,1,0.47187200000189505,1
12355,139,Larynx,Sham,Cons,Noise,32,3,1,0.891036500004702,1
12356,139,Larynx,Sham,Cons,Noise,33,3,1,1.0831365999984,1
12357,139,Larynx,Sham,Cons,Noise,34,2,0,0.588364100003673,1
12358,139,Larynx,Sham,Cons,Noise,35,4,0,0.654328899996472,1
12359,139,Larynx,Sham,Cons,Noise,36,3,1,0.7239996999996949,1
12360,139,Larynx,Sham,Cons,Noise,37,5,1,0.6555121000055811,1
12361,139,Larynx,Sham,Cons,Noise,38,1,0,0.675410299998475,1
12362,139,Larynx,Sham,Cons,Noise,39,4,1,0.870407200003683,1
12363,139,Larynx,Sham,Cons,Noise,40,5,1,0.8179533000002271,1
12364,139,Larynx,Sham,Cons,Noise,41,3,0,0.655102400000033,1
12365,139,Larynx,Sham,Cons,Noise,42,3,0,0.8080043000009031,1
12366,139,Larynx,Sham,Cons,Noise,43,4,1,0.5772940999959251,1
12367,139,Larynx,Sham,Cons,Noise,44,3,1,0.599535800000012,1
12368,139,Larynx,Sham,Cons,Noise,45,4,1,0.7542733000009321,1
12369,139,Larynx,Sham,Cons,Noise,46,1,0,0.630612900000415,1
12370,139,Larynx,Sham,Cons,Noise,47,3,0,0.7135674000019209,1
12371,139,Larynx,Sham,Cons,Noise,48,2,1,0.743721399994683,1
12372,139,Larynx,Sham,Cons,Noise,49,1,1,0.7021495000008139,1
12373,139,Larynx,Sham,Cons,Noise,50,4,0,0.765455900000234,1
12374,139,Larynx,Sham,Cons,Noise,51,3,1,1.2260877000007901,1
12375,139,Larynx,Sham,Cons,Noise,52,3,1,0.7053495999934971,1
12376,139,Larynx,Sham,Cons,Noise,53,1,0,0.641648199998599,1
12377,139,Larynx,Sham,Cons,Noise,54,5,0,0.5672265999965022,1
12378,139,Larynx,Sham,Cons,Noise,55,2,0,0.9343277000007221,1
12379,139,Larynx,Sham,Cons,Noise,56,1,1,0.6241588000048071,1
12380,139,Larynx,Sham,Cons,Noise,57,4,1,0.7011325999992549,1
12381,139,Larynx,Sham,Cons,Noise,58,4,1,1.29811930000142,1
12382,139,Larynx,Sham,Cons,Noise,59,2,0,0.568011899995327,1
12383,139,Larynx,Sham,Cons,Noise,60,2,1,0.811904999995022,1
12384,139,Larynx,Sham,Cons,Noise,61,4,1,0.7153619000018809,1
12385,139,Larynx,Sham,Cons,Noise,62,3,0,0.509508300005109,1
12386,139,Larynx,Sham,Cons,Noise,63,2,0,0.6045429000005239,1
12387,139,Larynx,Sham,Cons,Noise,64,3,1,0.8372987000038851,1
12388,139,Larynx,Sham,Cons,Noise,65,3,0,0.8875336999990401,1
12389,139,Larynx,Sham,Cons,Noise,66,5,0,0.7510036999956361,1
12390,139,Larynx,Sham,Cons,Noise,67,2,1,0.6332299999994581,1
12391,139,Larynx,Sham,Cons,Noise,68,2,1,1.03559530000348,1
12392,139,Larynx,Sham,Cons,Noise,69,4,1,0.802570799998648,1
12393,139,Larynx,Sham,Cons,Noise,70,5,1,0.76727050000045,1
12394,139,Larynx,Sham,Cons,Noise,71,1,0,0.648172400004114,1
12395,139,Larynx,Sham,Cons,Noise,72,5,0,1.26096499999403,1
12396,139,Larynx,Sham,Cons,Noise,73,1,0,0.800400599997374,1
12397,139,Larynx,Sham,Cons,Noise,74,4,1,0.7542238000023641,1
12398,139,Larynx,Sham,Cons,Noise,75,3,1,0.820479400004842,1
12399,139,Larynx,Sham,Cons,Noise,76,2,0,0.9393037000045301,1
12400,139,Larynx,Sham,Cons,Noise,77,3,1,0.906164699998044,1
12401,139,Larynx,Sham,Cons,Noise,78,5,1,0.8011071000000809,1
12402,139,Larynx,Sham,Cons,Noise,79,4,1,0.752925900000264,1
12403,139,Larynx,Sham,Cons,Noise,80,5,1,0.7635160999998329,1
12404,139,Larynx,Sham,Cons,Noise,81,2,0,0.7194633000035541,1
12405,139,Larynx,Sham,Cons,Noise,82,3,0,0.9147148000047309,1
12406,139,Larynx,Sham,Cons,Noise,83,4,1,0.648968100002094,1
12407,139,Larynx,Sham,Cons,Noise,84,4,1,0.635691200004658,1
12408,139,Larynx,Sham,Cons,Noise,85,2,0,1.0461502000034701,1
12409,139,Larynx,Sham,Cons,Noise,86,2,1,1.01382579999336,1
12410,139,Larynx,Sham,Cons,Noise,87,3,1,0.8546698999998629,1
12411,139,Larynx,Sham,Cons,Noise,88,5,0,0.706338100004359,1
12412,139,Larynx,Sham,Cons,Noise,89,1,0,0.8299078999989431,1
12413,139,Larynx,Sham,Cons,Noise,90,4,0,1.014783300001,1
12414,139,Larynx,Sham,Cons,Noise,91,3,1,0.737499700000626,1
12415,139,Larynx,Sham,Cons,Noise,92,1,1,0.6257874000002629,1
12416,139,Larynx,Sham,Cons,Noise,93,3,1,0.849614100006875,1
12417,139,Larynx,Sham,Cons,Noise,94,3,0,0.723958000002312,1
12418,139,Larynx,Sham,Cons,Noise,95,1,0,0.616128500005289,1
12419,139,Larynx,Sham,Cons,Noise,96,2,1,0.69486259999394,1
12420,139,Larynx,Sham,Cons,Noise,97,5,1,0.9596935999943531,1
12421,139,Larynx,Sham,Cons,Noise,98,5,1,0.672813099998166,1
12422,139,Larynx,Sham,Cons,Noise,99,4,1,1.04374420000386,1
12423,139,Larynx,Sham,Cons,Noise,100,3,1,0.8338328000027099,1
12424,139,Larynx,Sham,Cons,Noise,101,3,1,0.769350599999598,1
12425,139,Larynx,Sham,Cons,Noise,102,5,1,1.0002827999997,1
12426,139,Larynx,Sham,Cons,Noise,103,4,1,0.8449968999993871,1
12427,139,Larynx,Sham,Cons,Noise,104,3,0,0.641594699998677,1
12428,139,Larynx,Sham,Cons,Noise,105,2,0,0.660962599999039,1
12429,139,Larynx,Sham,Cons,Noise,106,4,1,0.734343399999489,1
12430,139,Larynx,Sham,Cons,Noise,107,1,0,0.727097199996933,1
12431,139,Larynx,Sham,Cons,Noise,108,1,0,0.978320800000802,1
12432,139,Larynx,Sham,Cons,Noise,109,3,1,0.7162565000035099,1
12433,139,Larynx,Sham,Cons,Noise,110,2,1,0.666358900001796,1
12434,139,Larynx,Sham,Cons,Noise,111,1,0,0.847150599998713,1
12435,139,Larynx,Sham,Cons,Noise,112,5,1,0.802483699997538,1
12436,139,Larynx,Sham,Cons,Noise,113,2,1,0.707642599998508,1
12437,139,Larynx,Sham,Cons,Noise,114,4,1,0.9263742999974058,1
12438,139,Larynx,Sham,Cons,Noise,115,3,0,0.8901707000040909,1
12439,139,Larynx,Sham,Cons,Noise,116,3,1,0.9212662999998431,1
12440,139,Larynx,Sham,Cons,Noise,117,2,1,0.725737000000663,1
12441,139,Larynx,Sham,Cons,Noise,118,1,1,0.6436586999989229,1
12442,139,Larynx,Sham,Cons,Noise,119,4,1,0.733762699994259,1
12443,139,Larynx,Sham,Cons,Noise,120,4,0,0.7141984999980201,1
12444,139,Larynx,Sham,Cons,Noise,121,2,1,0.630473299999721,1
12445,139,Larynx,Sham,Cons,Noise,122,1,0,0.692942399997264,1
12446,139,Larynx,Sham,Cons,Noise,123,2,0,0.579567900000256,1
12447,139,Larynx,Sham,Cons,Noise,124,5,1,0.5058897000053549,1
12448,139,Larynx,Sham,Cons,Noise,125,4,1,0.500767399993492,1
12449,139,Larynx,Sham,Cons,Noise,126,2,0,0.544521399999212,1
12450,139,Larynx,Sham,Cons,Noise,127,3,0,0.523943599997438,1
12451,139,Larynx,Sham,Cons,Noise,128,4,1,0.444942499998433,1
12452,139,Larynx,Sham,Cons,Noise,129,3,1,0.7312855999989549,1
12453,139,Larynx,Sham,Cons,Noise,130,1,0,0.7040913000018921,1
12454,139,Larynx,Sham,Cons,Noise,131,2,0,0.567244400001073,1
12455,139,Larynx,Sham,Cons,Noise,132,1,1,0.822846399998525,1
12456,139,Larynx,Sham,Cons,Noise,133,3,1,1.05786030000309,1
12457,139,Larynx,Sham,Cons,Noise,134,4,0,0.559263900002406,1
12458,139,Larynx,Sham,Cons,Noise,135,3,1,0.904535599998781,1
12459,139,Larynx,Sham,Cons,Noise,136,3,0,0.765864699998929,1
12460,139,Larynx,Sham,Cons,Noise,137,5,0,0.6970887999996189,1
12461,139,Larynx,Sham,Cons,Noise,138,2,1,0.6784105999977329,1
12462,139,Larynx,Sham,Cons,Noise,139,3,0,0.769005199996172,1
12463,139,Larynx,Sham,Cons,Noise,140,2,1,0.846131300000707,1
12464,139,Larynx,Sham,Cons,Noise,141,5,0,0.558219600003213,1
12465,139,Larynx,Sham,Cons,Noise,142,3,1,0.547192700003507,1
12466,139,Larynx,Sham,Cons,Noise,143,5,1,0.811133700000937,1
12467,139,Larynx,Sham,Cons,Noise,144,2,0,0.529191699999501,1
12468,139,Larynx,Sham,Cons,Noise,145,3,1,0.7933334999979709,1
12469,139,Larynx,Sham,Cons,Noise,146,1,0,0.6581952000051391,1
12470,139,Larynx,Sham,Cons,Noise,147,3,1,0.694754500000272,1
12471,139,Larynx,Sham,Cons,Noise,148,4,1,0.86367899999459,1
12472,139,Larynx,Sham,Cons,Noise,149,4,1,0.9666818999976391,1
12473,139,Larynx,Sham,Cons,Noise,150,2,1,0.8184639000028259,1
12474,139,Larynx,Sham,Cons,Noise,151,5,1,0.963317899993854,1
12475,139,Larynx,Sham,Cons,Noise,152,3,1,0.75918929999898,1
12476,139,Larynx,Sham,Cons,Noise,153,3,1,0.7464274999947521,1
12477,139,Larynx,Sham,Cons,Noise,154,5,0,0.563970700000937,1
12478,139,Larynx,Sham,Cons,Noise,155,4,1,0.8971190000011121,1
12479,139,Larynx,Sham,Cons,Noise,156,1,0,0.79276309999841,1
14820,142,Larynx,Right cTBS,Cons,Noise,1,3,0,0.7773509999969971,1
14821,142,Larynx,Right cTBS,Cons,Noise,2,1,0,0.572844699956477,1
14822,142,Larynx,Right cTBS,Cons,Noise,3,1,1,0.433156899991445,1
14823,142,Larynx,Right cTBS,Cons,Noise,4,2,1,0.394801800022833,1
14824,142,Larynx,Right cTBS,Cons,Noise,5,2,1,0.5498796000028959,1
14825,142,Larynx,Right cTBS,Cons,Noise,6,2,1,0.524054700043052,1
14826,142,Larynx,Right cTBS,Cons,Noise,7,3,0,0.4867016000207511,1
14827,142,Larynx,Right cTBS,Cons,Noise,8,5,1,0.50759349996224,1
14828,142,Larynx,Right cTBS,Cons,Noise,9,5,1,0.582398700003978,1
14829,142,Larynx,Right cTBS,Cons,Noise,10,1,0,0.556940000038594,1
14830,142,Larynx,Right cTBS,Cons,Noise,11,1,1,0.485400300007313,1
14831,142,Larynx,Right cTBS,Cons,Noise,12,3,1,0.663018899969757,1
14832,142,Larynx,Right cTBS,Cons,Noise,13,4,1,0.540596699982416,1
14833,142,Larynx,Right cTBS,Cons,Noise,14,4,1,0.471590199973434,1
14834,142,Larynx,Right cTBS,Cons,Noise,15,5,1,0.5577962999814189,1
14835,142,Larynx,Right cTBS,Cons,Noise,16,5,1,0.5975013999850489,1
14836,142,Larynx,Right cTBS,Cons,Noise,17,3,1,0.436675900011323,1
14837,142,Larynx,Right cTBS,Cons,Noise,18,4,1,0.629897200036794,1
14838,142,Larynx,Right cTBS,Cons,Noise,19,3,0,0.6770049000042491,1
14839,142,Larynx,Right cTBS,Cons,Noise,20,2,1,0.48177509999368295,1
14840,142,Larynx,Right cTBS,Cons,Noise,21,2,0,0.579800000006799,1
14841,142,Larynx,Right cTBS,Cons,Noise,22,3,1,0.595291299978271,1
14842,142,Larynx,Right cTBS,Cons,Noise,23,4,0,0.620688199996948,1
14843,142,Larynx,Right cTBS,Cons,Noise,24,3,1,0.5244737999746579,1
14844,142,Larynx,Right cTBS,Cons,Noise,25,4,1,0.6923609999939799,1
14845,142,Larynx,Right cTBS,Cons,Noise,26,2,0,0.48636249999981396,1
14846,142,Larynx,Right cTBS,Cons,Noise,27,3,1,0.619521700020414,1
14847,142,Larynx,Right cTBS,Cons,Noise,28,3,1,0.5726059000007809,1
14848,142,Larynx,Right cTBS,Cons,Noise,29,5,1,0.629403899947647,1
14849,142,Larynx,Right cTBS,Cons,Noise,30,4,1,0.5961956999963149,1
14850,142,Larynx,Right cTBS,Cons,Noise,31,5,1,0.6489616999751889,1
14851,142,Larynx,Right cTBS,Cons,Noise,32,2,0,0.656508899992332,1
14852,142,Larynx,Right cTBS,Cons,Noise,33,4,1,0.629009899974335,1
14853,142,Larynx,Right cTBS,Cons,Noise,34,2,1,0.6227743999916129,1
14854,142,Larynx,Right cTBS,Cons,Noise,35,4,1,0.681269599997904,1
14855,142,Larynx,Right cTBS,Cons,Noise,36,1,0,0.6246699999901469,1
14856,142,Larynx,Right cTBS,Cons,Noise,37,3,0,0.5436324999900529,1
14857,142,Larynx,Right cTBS,Cons,Noise,38,1,0,0.5579422999871889,1
14858,142,Larynx,Right cTBS,Cons,Noise,39,3,1,0.6824981999816372,1
14859,142,Larynx,Right cTBS,Cons,Noise,40,5,0,0.545100800052751,1
14860,142,Larynx,Right cTBS,Cons,Noise,41,2,1,0.8803701999713671,1
14861,142,Larynx,Right cTBS,Cons,Noise,42,4,1,0.551102700002957,1
14862,142,Larynx,Right cTBS,Cons,Noise,43,3,1,0.733584200032055,1
14863,142,Larynx,Right cTBS,Cons,Noise,44,5,1,0.4448885999736379,1
14864,142,Larynx,Right cTBS,Cons,Noise,45,1,0,0.592543500009924,1
14865,142,Larynx,Right cTBS,Cons,Noise,46,4,1,0.6951641999767161,1
14866,142,Larynx,Right cTBS,Cons,Noise,47,5,1,0.58501590002561,1
14867,142,Larynx,Right cTBS,Cons,Noise,48,2,1,0.637656300037634,1
14868,142,Larynx,Right cTBS,Cons,Noise,49,5,1,0.5366164000006389,1
14869,142,Larynx,Right cTBS,Cons,Noise,50,5,1,0.5579529000096949,1
14870,142,Larynx,Right cTBS,Cons,Noise,51,3,1,0.5174983000033541,1
14871,142,Larynx,Right cTBS,Cons,Noise,52,4,1,0.480628499994054,1
14872,142,Larynx,Right cTBS,Cons,Noise,53,3,1,0.630897300026845,1
14873,142,Larynx,Right cTBS,Cons,Noise,54,3,1,0.624844799982384,1
14874,142,Larynx,Right cTBS,Cons,Noise,55,4,1,0.5662000000011179,1
14875,142,Larynx,Right cTBS,Cons,Noise,56,1,1,0.581319099990651,1
14876,142,Larynx,Right cTBS,Cons,Noise,57,1,0,0.46259869995992603,1
14877,142,Larynx,Right cTBS,Cons,Noise,58,4,1,0.64369810000062,1
14878,142,Larynx,Right cTBS,Cons,Noise,59,2,0,0.450367600016762,1
14879,142,Larynx,Right cTBS,Cons,Noise,60,2,1,0.77942219999386,1
14880,142,Larynx,Right cTBS,Cons,Noise,61,3,0,0.688849200028926,1
14881,142,Larynx,Right cTBS,Cons,Noise,62,3,1,0.574579299951438,1
14882,142,Larynx,Right cTBS,Cons,Noise,63,1,0,0.8163990000030029,1
14883,142,Larynx,Right cTBS,Cons,Noise,64,4,1,0.63342589995591,1
14884,142,Larynx,Right cTBS,Cons,Noise,65,3,0,0.5967002999968829,1
14885,142,Larynx,Right cTBS,Cons,Noise,66,2,1,0.445734800014179,1
14886,142,Larynx,Right cTBS,Cons,Noise,67,2,0,0.649714700004552,1
14887,142,Larynx,Right cTBS,Cons,Noise,68,4,1,0.49771649995818706,1
14888,142,Larynx,Right cTBS,Cons,Noise,69,3,0,0.67248930002097,1
14889,142,Larynx,Right cTBS,Cons,Noise,70,4,1,0.646723799989559,1
14890,142,Larynx,Right cTBS,Cons,Noise,71,1,0,0.558963899966329,1
14891,142,Larynx,Right cTBS,Cons,Noise,72,1,0,0.574224299984053,1
14892,142,Larynx,Right cTBS,Cons,Noise,73,2,1,0.480307399993762,1
14893,142,Larynx,Right cTBS,Cons,Noise,74,2,0,0.6637235999805849,1
14894,142,Larynx,Right cTBS,Cons,Noise,75,3,0,0.7173381000175141,1
14895,142,Larynx,Right cTBS,Cons,Noise,76,3,0,0.850838300015312,1
14896,142,Larynx,Right cTBS,Cons,Noise,77,5,1,0.590676399995573,1
14897,142,Larynx,Right cTBS,Cons,Noise,78,3,1,0.600282699975651,1
14898,142,Larynx,Right cTBS,Cons,Noise,79,5,1,0.556807000015397,1
14899,142,Larynx,Right cTBS,Cons,Noise,80,3,0,0.840450700023212,1
14900,142,Larynx,Right cTBS,Cons,Noise,81,1,0,0.6666142999893051,1
14901,142,Larynx,Right cTBS,Cons,Noise,82,2,0,0.68113889999222,1
14902,142,Larynx,Right cTBS,Cons,Noise,83,3,1,0.6805803999886851,1
14903,142,Larynx,Right cTBS,Cons,Noise,84,4,1,0.6032789999735539,1
14904,142,Larynx,Right cTBS,Cons,Noise,85,3,0,0.990154699946288,1
14905,142,Larynx,Right cTBS,Cons,Noise,86,4,1,0.583107399987057,1
14906,142,Larynx,Right cTBS,Cons,Noise,87,3,0,1.06436200003373,1
14907,142,Larynx,Right cTBS,Cons,Noise,88,3,0,1.18068130000029,1
14908,142,Larynx,Right cTBS,Cons,Noise,89,5,1,0.462821500026621,1
14909,142,Larynx,Right cTBS,Cons,Noise,90,2,0,0.6240992000093679,1
14910,142,Larynx,Right cTBS,Cons,Noise,91,4,1,0.821964200004004,1
14911,142,Larynx,Right cTBS,Cons,Noise,92,3,1,0.7067038000095641,1
14912,142,Larynx,Right cTBS,Cons,Noise,93,1,0,0.6106719999806961,1
14913,142,Larynx,Right cTBS,Cons,Noise,94,2,1,0.52277540002251,1
14914,142,Larynx,Right cTBS,Cons,Noise,95,1,1,0.491792600019835,1
14915,142,Larynx,Right cTBS,Cons,Noise,96,4,0,0.6606032000272529,1
14916,142,Larynx,Right cTBS,Cons,Noise,97,2,0,1.15972049999982,1
14917,142,Larynx,Right cTBS,Cons,Noise,98,2,1,0.5408622999675571,1
14918,142,Larynx,Right cTBS,Cons,Noise,99,1,0,0.664726199989673,1
14919,142,Larynx,Right cTBS,Cons,Noise,100,4,1,0.557463500008453,1
14920,142,Larynx,Right cTBS,Cons,Noise,101,3,1,0.6380985999712719,1
14921,142,Larynx,Right cTBS,Cons,Noise,102,5,1,0.497085699986201,1
14922,142,Larynx,Right cTBS,Cons,Noise,103,2,1,0.593444500002079,1
14923,142,Larynx,Right cTBS,Cons,Noise,104,3,0,0.5175241000251839,1
14924,142,Larynx,Right cTBS,Cons,Noise,105,3,1,0.7780692000524141,1
14925,142,Larynx,Right cTBS,Cons,Noise,106,5,0,0.7717076999833811,1
14926,142,Larynx,Right cTBS,Cons,Noise,107,1,0,0.6647298000170849,1
14927,142,Larynx,Right cTBS,Cons,Noise,108,5,1,0.60552209999878,1
14928,142,Larynx,Right cTBS,Cons,Noise,109,4,1,0.995659400010481,1
14929,142,Larynx,Right cTBS,Cons,Noise,110,3,1,1.44016070000362,1
14930,142,Larynx,Right cTBS,Cons,Noise,111,4,1,0.6151042000274171,1
14931,142,Larynx,Right cTBS,Cons,Noise,112,2,0,0.780671300017275,1
14932,142,Larynx,Right cTBS,Cons,Noise,113,1,0,0.604316299955826,1
14933,142,Larynx,Right cTBS,Cons,Noise,114,3,1,0.5502544000046329,1
14934,142,Larynx,Right cTBS,Cons,Noise,115,2,0,0.8612642000080091,1
14935,142,Larynx,Right cTBS,Cons,Noise,116,4,0,0.52782690001186,1
14936,142,Larynx,Right cTBS,Cons,Noise,117,5,1,0.48440910002682397,1
14937,142,Larynx,Right cTBS,Cons,Noise,118,4,1,0.573102299997117,1
14938,142,Larynx,Right cTBS,Cons,Noise,119,3,1,0.6626556000555871,1
14939,142,Larynx,Right cTBS,Cons,Noise,120,2,0,0.637273699976504,1
14940,142,Larynx,Right cTBS,Cons,Noise,121,3,0,0.700283499958459,1
14941,142,Larynx,Right cTBS,Cons,Noise,122,2,0,0.6337544000125489,1
14942,142,Larynx,Right cTBS,Cons,Noise,123,3,1,0.6214336999692021,1
14943,142,Larynx,Right cTBS,Cons,Noise,124,1,0,0.6570676000555981,1
14944,142,Larynx,Right cTBS,Cons,Noise,125,4,1,0.625901799998246,1
14945,142,Larynx,Right cTBS,Cons,Noise,126,5,1,0.672168500022963,1
14946,142,Larynx,Right cTBS,Cons,Noise,127,3,1,0.556304699974135,1
14947,142,Larynx,Right cTBS,Cons,Noise,128,4,1,0.5703907000133771,1
14948,142,Larynx,Right cTBS,Cons,Noise,129,2,1,0.623882099986076,1
14949,142,Larynx,Right cTBS,Cons,Noise,130,3,1,0.640916400006972,1
14950,142,Larynx,Right cTBS,Cons,Noise,131,2,0,1.0289248999906702,1
14951,142,Larynx,Right cTBS,Cons,Noise,132,5,1,0.6435106999706479,1
14952,142,Larynx,Right cTBS,Cons,Noise,133,3,1,0.6758771000313571,1
14953,142,Larynx,Right cTBS,Cons,Noise,134,2,1,0.666597100032959,1
14954,142,Larynx,Right cTBS,Cons,Noise,135,4,1,0.636396599991713,1
14955,142,Larynx,Right cTBS,Cons,Noise,136,2,0,0.739158899988979,1
14956,142,Larynx,Right cTBS,Cons,Noise,137,1,0,0.6403066000202671,1
14957,142,Larynx,Right cTBS,Cons,Noise,138,5,1,0.878561099991202,1
14958,142,Larynx,Right cTBS,Cons,Noise,139,5,1,0.6542258999543261,1
14959,142,Larynx,Right cTBS,Cons,Noise,140,1,0,0.540781899995636,1
14960,142,Larynx,Right cTBS,Cons,Noise,141,4,1,0.5617183000431399,1
14961,142,Larynx,Right cTBS,Cons,Noise,142,4,1,0.669389999995474,1
14962,142,Larynx,Right cTBS,Cons,Noise,143,5,1,0.618931899953168,1
14963,142,Larynx,Right cTBS,Cons,Noise,144,3,1,0.612831000005826,1
14964,142,Larynx,Right cTBS,Cons,Noise,145,3,1,0.8643868999788541,1
14965,142,Larynx,Right cTBS,Cons,Noise,146,5,1,0.64387169998372,1
14966,142,Larynx,Right cTBS,Cons,Noise,147,3,0,0.5064534999546589,1
14967,142,Larynx,Right cTBS,Cons,Noise,148,2,0,0.5328307000454521,1
14968,142,Larynx,Right cTBS,Cons,Noise,149,1,0,0.7216336000128649,1
14969,142,Larynx,Right cTBS,Cons,Noise,150,1,0,0.639785300008953,1
14970,142,Larynx,Right cTBS,Cons,Noise,151,4,1,0.62492570001632,1
14971,142,Larynx,Right cTBS,Cons,Noise,152,3,0,0.8795629000524059,1
14972,142,Larynx,Right cTBS,Cons,Noise,153,3,1,0.642279999970924,1
14973,142,Larynx,Right cTBS,Cons,Noise,154,4,1,0.7027680999599398,1
14974,142,Larynx,Right cTBS,Cons,Noise,155,1,0,0.8610527000273579,1
14975,142,Larynx,Right cTBS,Cons,Noise,156,2,0,0.6470393999479711,1
15444,142,Larynx,Sham,Cons,Noise,1,5,0,0.7675883000010799,1
15445,142,Larynx,Sham,Cons,Noise,2,4,1,0.5011402999989509,1
15446,142,Larynx,Sham,Cons,Noise,3,5,1,0.667831200000364,1
15447,142,Larynx,Sham,Cons,Noise,4,1,0,0.49592180000036,1
15448,142,Larynx,Sham,Cons,Noise,5,3,1,0.44532669999898605,1
15449,142,Larynx,Sham,Cons,Noise,6,2,0,0.7316105000027159,1
15450,142,Larynx,Sham,Cons,Noise,7,3,0,0.567479800000001,1
15451,142,Larynx,Sham,Cons,Noise,8,5,1,0.422852300001978,1
15452,142,Larynx,Sham,Cons,Noise,9,2,0,0.565076599999884,1
15453,142,Larynx,Sham,Cons,Noise,10,4,1,0.498351000002003,1
15454,142,Larynx,Sham,Cons,Noise,11,5,0,0.41201309999814795,1
15455,142,Larynx,Sham,Cons,Noise,12,2,1,0.6070550000004,1
15456,142,Larynx,Sham,Cons,Noise,13,2,0,0.46341440000105605,1
15457,142,Larynx,Sham,Cons,Noise,14,4,1,0.7120673999997958,1
15458,142,Larynx,Sham,Cons,Noise,15,1,0,0.5315953999997871,1
15459,142,Larynx,Sham,Cons,Noise,16,3,1,0.429291200001899,1
15460,142,Larynx,Sham,Cons,Noise,17,3,0,0.39525309999953595,1
15461,142,Larynx,Sham,Cons,Noise,18,3,1,0.4484436999991889,1
15462,142,Larynx,Sham,Cons,Noise,19,5,0,0.38086530000146,1
15463,142,Larynx,Sham,Cons,Noise,20,2,0,0.723307899999782,1
15464,142,Larynx,Sham,Cons,Noise,21,1,1,0.4229747999997929,1
15465,142,Larynx,Sham,Cons,Noise,22,2,0,0.762383199999022,1
15466,142,Larynx,Sham,Cons,Noise,23,4,1,0.4795359000017921,1
15467,142,Larynx,Sham,Cons,Noise,24,3,0,0.44628549999833894,1
15468,142,Larynx,Sham,Cons,Noise,25,4,1,0.41286269999909603,1
15469,142,Larynx,Sham,Cons,Noise,26,1,0,0.41101390000039795,1
15470,142,Larynx,Sham,Cons,Noise,27,5,1,0.604574799999682,1
15471,142,Larynx,Sham,Cons,Noise,28,1,0,0.510990399998263,1
15472,142,Larynx,Sham,Cons,Noise,29,2,1,0.474407300000166,1
15473,142,Larynx,Sham,Cons,Noise,30,3,0,0.5092948000019529,1
15474,142,Larynx,Sham,Cons,Noise,31,4,1,0.38940139999977,1
15475,142,Larynx,Sham,Cons,Noise,32,3,1,0.6780894000003169,1
15476,142,Larynx,Sham,Cons,Noise,33,1,0,0.605543300000136,1
15477,142,Larynx,Sham,Cons,Noise,34,4,1,0.495715299999574,1
15478,142,Larynx,Sham,Cons,Noise,35,3,0,0.5925868000013,1
15479,142,Larynx,Sham,Cons,Noise,36,2,0,0.8207346000017421,1
15480,142,Larynx,Sham,Cons,Noise,37,3,1,0.547467000000324,1
15481,142,Larynx,Sham,Cons,Noise,38,4,0,0.65349040000001,1
15482,142,Larynx,Sham,Cons,Noise,39,3,0,0.669330299999274,1
15483,142,Larynx,Sham,Cons,Noise,40,4,1,0.5703226999976321,1
15484,142,Larynx,Sham,Cons,Noise,41,2,0,0.546692100000655,1
15485,142,Larynx,Sham,Cons,Noise,42,2,0,0.5965345000004161,1
15486,142,Larynx,Sham,Cons,Noise,43,3,1,0.683833400002186,1
15487,142,Larynx,Sham,Cons,Noise,44,3,1,0.9000979999982521,1
15488,142,Larynx,Sham,Cons,Noise,45,3,1,0.6567939999986271,1
15489,142,Larynx,Sham,Cons,Noise,46,4,1,0.8740210999967529,1
15490,142,Larynx,Sham,Cons,Noise,47,1,0,0.674292200001219,1
15491,142,Larynx,Sham,Cons,Noise,48,1,0,0.8024724999995669,1
15492,142,Larynx,Sham,Cons,Noise,49,2,0,0.6897734999984101,1
15493,142,Larynx,Sham,Cons,Noise,50,2,0,0.6725574999982199,1
15494,142,Larynx,Sham,Cons,Noise,51,4,1,0.7329621999997471,1
15495,142,Larynx,Sham,Cons,Noise,52,5,1,0.8420087000013149,1
15496,142,Larynx,Sham,Cons,Noise,53,5,1,0.756641600000876,1
15497,142,Larynx,Sham,Cons,Noise,54,3,0,0.7447676000010691,1
15498,142,Larynx,Sham,Cons,Noise,55,2,0,0.928237800002535,1
15499,142,Larynx,Sham,Cons,Noise,56,4,1,0.547371399999975,1
15500,142,Larynx,Sham,Cons,Noise,57,1,0,0.8572343999985609,1
15501,142,Larynx,Sham,Cons,Noise,58,1,0,0.657551500000409,1
15502,142,Larynx,Sham,Cons,Noise,59,3,1,0.694905600001221,1
15503,142,Larynx,Sham,Cons,Noise,60,3,0,0.600215400001616,1
15504,142,Larynx,Sham,Cons,Noise,61,2,0,0.752581000000646,1
15505,142,Larynx,Sham,Cons,Noise,62,5,1,0.680973099999392,1
15506,142,Larynx,Sham,Cons,Noise,63,4,0,0.741893999998865,1
15507,142,Larynx,Sham,Cons,Noise,64,5,1,0.647873499998241,1
15508,142,Larynx,Sham,Cons,Noise,65,3,1,0.7577479999999921,1
15509,142,Larynx,Sham,Cons,Noise,66,4,1,0.687604099999589,1
15510,142,Larynx,Sham,Cons,Noise,67,3,1,0.7994092000008101,1
15511,142,Larynx,Sham,Cons,Noise,68,1,0,0.504560100001981,1
15512,142,Larynx,Sham,Cons,Noise,69,5,1,0.657384599999205,1
15513,142,Larynx,Sham,Cons,Noise,70,1,0,0.9748327999986941,1
15514,142,Larynx,Sham,Cons,Noise,71,3,0,0.7352127999984079,1
15515,142,Larynx,Sham,Cons,Noise,72,5,1,0.736258299999463,1
15516,142,Larynx,Sham,Cons,Noise,73,3,0,0.707987799996772,1
15517,142,Larynx,Sham,Cons,Noise,74,3,1,0.613466100003279,1
15518,142,Larynx,Sham,Cons,Noise,75,2,0,0.833362599998509,1
15519,142,Larynx,Sham,Cons,Noise,76,4,1,0.844083699998009,1
15520,142,Larynx,Sham,Cons,Noise,77,2,1,0.8293058000017479,1
15521,142,Larynx,Sham,Cons,Noise,78,4,1,0.71311059999789,1
15522,142,Larynx,Sham,Cons,Noise,79,2,0,0.8967322999997122,1
15523,142,Larynx,Sham,Cons,Noise,80,3,1,0.6115954000015339,1
15524,142,Larynx,Sham,Cons,Noise,81,5,1,0.7282545999987629,1
15525,142,Larynx,Sham,Cons,Noise,82,4,1,0.698184299999411,1
15526,142,Larynx,Sham,Cons,Noise,83,1,0,0.664095500000258,1
15527,142,Larynx,Sham,Cons,Noise,84,2,1,0.658355600000505,1
15528,142,Larynx,Sham,Cons,Noise,85,5,1,0.734724400001141,1
15529,142,Larynx,Sham,Cons,Noise,86,1,0,0.7284523999987871,1
15530,142,Larynx,Sham,Cons,Noise,87,3,1,0.6321434999990739,1
15531,142,Larynx,Sham,Cons,Noise,88,1,0,0.774404000003415,1
15532,142,Larynx,Sham,Cons,Noise,89,3,0,0.8122800999990429,1
15533,142,Larynx,Sham,Cons,Noise,90,1,0,0.633385900000576,1
15534,142,Larynx,Sham,Cons,Noise,91,4,1,0.6245066999981651,1
15535,142,Larynx,Sham,Cons,Noise,92,5,1,0.6531709000009871,1
15536,142,Larynx,Sham,Cons,Noise,93,4,1,0.678112800000235,1
15537,142,Larynx,Sham,Cons,Noise,94,4,1,0.909543800000392,1
15538,142,Larynx,Sham,Cons,Noise,95,5,1,0.8260626000010229,1
15539,142,Larynx,Sham,Cons,Noise,96,2,0,0.646183599998039,1
15540,142,Larynx,Sham,Cons,Noise,97,2,1,0.7944453999989491,1
15541,142,Larynx,Sham,Cons,Noise,98,5,1,0.9437459000000671,1
15542,142,Larynx,Sham,Cons,Noise,99,3,1,0.653730999998515,1
15543,142,Larynx,Sham,Cons,Noise,100,3,1,0.9755485000023331,1
15544,142,Larynx,Sham,Cons,Noise,101,4,1,0.6750428000013929,1
15545,142,Larynx,Sham,Cons,Noise,102,2,0,0.638468900000589,1
15546,142,Larynx,Sham,Cons,Noise,103,2,0,0.624313699998311,1
15547,142,Larynx,Sham,Cons,Noise,104,1,0,0.6990216000012879,1
15548,142,Larynx,Sham,Cons,Noise,105,4,1,0.636636700000963,1
15549,142,Larynx,Sham,Cons,Noise,106,3,1,0.639819399999396,1
15550,142,Larynx,Sham,Cons,Noise,107,3,1,0.6053657999982529,1
15551,142,Larynx,Sham,Cons,Noise,108,3,1,0.6438454000017371,1
15552,142,Larynx,Sham,Cons,Noise,109,4,1,0.616952700002003,1
15553,142,Larynx,Sham,Cons,Noise,110,5,1,0.6544766999977579,1
15554,142,Larynx,Sham,Cons,Noise,111,2,1,0.70037560000128,1
15555,142,Larynx,Sham,Cons,Noise,112,2,0,0.46981550000055,1
15556,142,Larynx,Sham,Cons,Noise,113,3,1,0.620441899998696,1
15557,142,Larynx,Sham,Cons,Noise,114,3,0,0.54395089999889,1
15558,142,Larynx,Sham,Cons,Noise,115,3,1,0.49395139999978704,1
15559,142,Larynx,Sham,Cons,Noise,116,1,0,0.48032519999833295,1
15560,142,Larynx,Sham,Cons,Noise,117,4,1,0.445904799998971,1
15561,142,Larynx,Sham,Cons,Noise,118,2,0,0.394790600003034,1
15562,142,Larynx,Sham,Cons,Noise,119,4,1,0.6186481000004279,1
15563,142,Larynx,Sham,Cons,Noise,120,2,0,0.5722534999986241,1
15564,142,Larynx,Sham,Cons,Noise,121,3,1,0.7195009000024579,1
15565,142,Larynx,Sham,Cons,Noise,122,2,0,0.37894779999987793,1
15566,142,Larynx,Sham,Cons,Noise,123,5,1,0.624508600001718,1
15567,142,Larynx,Sham,Cons,Noise,124,3,1,0.8833770000019291,1
15568,142,Larynx,Sham,Cons,Noise,125,5,1,0.8547828000009761,1
15569,142,Larynx,Sham,Cons,Noise,126,4,1,0.5823392999991479,1
15570,142,Larynx,Sham,Cons,Noise,127,4,1,0.612279599998146,1
15571,142,Larynx,Sham,Cons,Noise,128,1,0,0.6860588999988979,1
15572,142,Larynx,Sham,Cons,Noise,129,3,1,0.753808400000707,1
15573,142,Larynx,Sham,Cons,Noise,130,5,0,0.42110719999982393,1
15574,142,Larynx,Sham,Cons,Noise,131,4,1,0.9033810000000809,1
15575,142,Larynx,Sham,Cons,Noise,132,2,0,1.1545927000006497,1
15576,142,Larynx,Sham,Cons,Noise,133,3,1,0.682365799999388,1
15577,142,Larynx,Sham,Cons,Noise,134,2,0,0.735612300002686,1
15578,142,Larynx,Sham,Cons,Noise,135,5,1,0.7487062000000151,1
15579,142,Larynx,Sham,Cons,Noise,136,3,0,1.04528209999989,1
15580,142,Larynx,Sham,Cons,Noise,137,3,1,0.6054064999989351,1
15581,142,Larynx,Sham,Cons,Noise,138,2,0,0.73500299999796,1
15582,142,Larynx,Sham,Cons,Noise,139,1,0,0.8431302999997571,1
15583,142,Larynx,Sham,Cons,Noise,140,4,1,0.5556201999970649,1
15584,142,Larynx,Sham,Cons,Noise,141,1,1,1.05815710000024,1
15585,142,Larynx,Sham,Cons,Noise,142,3,0,0.742039299999306,1
15586,142,Larynx,Sham,Cons,Noise,143,4,1,0.695381099998485,1
15587,142,Larynx,Sham,Cons,Noise,144,4,1,0.8540538999986892,1
15588,142,Larynx,Sham,Cons,Noise,145,1,1,0.6954746999981579,1
15589,142,Larynx,Sham,Cons,Noise,146,2,0,0.82590429999982,1
15590,142,Larynx,Sham,Cons,Noise,147,3,0,0.7611985000003191,1
15591,142,Larynx,Sham,Cons,Noise,148,5,1,0.612771899999643,1
15592,142,Larynx,Sham,Cons,Noise,149,4,1,0.7279385999972869,1
15593,142,Larynx,Sham,Cons,Noise,150,5,1,0.64741629999844,1
15594,142,Larynx,Sham,Cons,Noise,151,3,0,0.6094019999982271,1
15595,142,Larynx,Sham,Cons,Noise,152,2,0,0.79682590000084,1
15596,142,Larynx,Sham,Cons,Noise,153,3,1,0.5204978000001571,1
15597,142,Larynx,Sham,Cons,Noise,154,3,1,0.742331700002978,1
15598,142,Larynx,Sham,Cons,Noise,155,1,0,0.5865603999991441,1
15599,142,Larynx,Sham,Cons,Noise,156,1,0,0.926279199997225,1
17940,201,Larynx,Right cTBS,Cons,Noise,1,3,0,0.881515499902889,1
17941,201,Larynx,Right cTBS,Cons,Noise,2,3,0,0.5998472999781371,1
17942,201,Larynx,Right cTBS,Cons,Noise,3,5,0,0.6531366000417621,1
17943,201,Larynx,Right cTBS,Cons,Noise,4,4,0,0.640698199975304,1
17944,201,Larynx,Right cTBS,Cons,Noise,5,4,0,0.67293769994285,1
17945,201,Larynx,Right cTBS,Cons,Noise,6,3,0,0.680177500005811,1
17946,201,Larynx,Right cTBS,Cons,Noise,7,5,1,0.6703021000139421,1
17947,201,Larynx,Right cTBS,Cons,Noise,8,3,1,0.632830599904992,1
17948,201,Larynx,Right cTBS,Cons,Noise,9,2,1,0.596859500044957,1
17949,201,Larynx,Right cTBS,Cons,Noise,10,3,0,0.675910000107251,1
17950,201,Larynx,Right cTBS,Cons,Noise,11,1,0,0.541971900034696,1
17951,201,Larynx,Right cTBS,Cons,Noise,12,3,0,0.5562231999356301,1
17952,201,Larynx,Right cTBS,Cons,Noise,13,3,0,0.538103199913166,1
17953,201,Larynx,Right cTBS,Cons,Noise,14,4,0,0.474747800035402,1
17954,201,Larynx,Right cTBS,Cons,Noise,15,2,0,0.666112300008535,1
17955,201,Larynx,Right cTBS,Cons,Noise,16,5,0,0.7299356999574229,1
17956,201,Larynx,Right cTBS,Cons,Noise,17,3,0,0.6102233999408779,1
17957,201,Larynx,Right cTBS,Cons,Noise,18,3,0,0.547793600009754,1
17958,201,Larynx,Right cTBS,Cons,Noise,19,1,0,0.537655599997379,1
17959,201,Larynx,Right cTBS,Cons,Noise,20,1,0,0.49875589995645003,1
17960,201,Larynx,Right cTBS,Cons,Noise,21,2,0,0.551585600012913,1
17961,201,Larynx,Right cTBS,Cons,Noise,22,2,0,0.48020610003732106,1
17962,201,Larynx,Right cTBS,Cons,Noise,23,3,0,0.475195700069889,1
17963,201,Larynx,Right cTBS,Cons,Noise,24,1,0,0.49216470005922,1
17964,201,Larynx,Right cTBS,Cons,Noise,25,4,0,0.476125400047749,1
17965,201,Larynx,Right cTBS,Cons,Noise,26,1,0,0.48442479991354,1
17966,201,Larynx,Right cTBS,Cons,Noise,27,5,0,0.570989799918607,1
