,subj_idx,group_idx,turn_type,task_type,snr_type,trial_num,step_att,response,rt,step_unatnd
1872,55,Larynx,Right cTBS,Tone,Clear,1,2,1,0.915280100001837,1
1873,55,Larynx,Right cTBS,Tone,Clear,2,2,1,0.474398800011841,1
1874,55,Larynx,Right cTBS,Tone,Clear,3,1,0,0.5455350999982329,1
1875,55,Larynx,Right cTBS,Tone,Clear,4,4,1,0.437469800002873,1
1876,55,Larynx,Right cTBS,Tone,Clear,5,1,0,0.408656200001133,1
1877,55,Larynx,Right cTBS,Tone,Clear,6,4,1,0.466801299990038,1
1878,55,Larynx,Right cTBS,Tone,Clear,7,1,0,0.57401640000171,1
1879,55,Larynx,Right cTBS,Tone,Clear,8,4,1,0.442587300000014,1
1880,55,Larynx,Right cTBS,Tone,Clear,9,5,1,0.47088170000643,1
1881,55,Larynx,Right cTBS,Tone,Clear,10,2,0,0.561891199991805,1
1882,55,Larynx,Right cTBS,Tone,Clear,11,2,1,0.48827140001230895,1
1883,55,Larynx,Right cTBS,Tone,Clear,12,3,1,0.44374370000150504,1
1884,55,Larynx,Right cTBS,Tone,Clear,13,3,1,0.420810800002073,1
1885,55,Larynx,Right cTBS,Tone,Clear,14,4,1,0.458407600002829,1
1886,55,Larynx,Right cTBS,Tone,Clear,15,3,1,0.46365580000565404,1
1887,55,Larynx,Right cTBS,Tone,Clear,16,4,1,0.4266590000042921,1
1888,55,Larynx,Right cTBS,Tone,Clear,17,3,0,0.557064900000114,1
1889,55,Larynx,Right cTBS,Tone,Clear,18,3,1,1.40417969999544,1
1890,55,Larynx,Right cTBS,Tone,Clear,19,5,1,0.534935200004838,1
1891,55,Larynx,Right cTBS,Tone,Clear,20,2,0,0.49358819999906706,1
1892,55,Larynx,Right cTBS,Tone,Clear,21,2,0,0.49194360000547,1
1893,55,Larynx,Right cTBS,Tone,Clear,22,4,1,0.511692799991579,1
1894,55,Larynx,Right cTBS,Tone,Clear,23,3,0,1.8963095999933999,1
1895,55,Larynx,Right cTBS,Tone,Clear,24,3,0,0.000366799999028444,1
1896,55,Larynx,Right cTBS,Tone,Clear,25,5,0,0.000627400004304945,1
1897,55,Larynx,Right cTBS,Tone,Clear,26,4,1,2.2444485000014502,1
1898,55,Larynx,Right cTBS,Tone,Clear,27,5,1,0.688295699990704,1
1899,55,Larynx,Right cTBS,Tone,Clear,28,3,1,0.876523799990537,1
1900,55,Larynx,Right cTBS,Tone,Clear,29,2,0,0.689272899995558,1
1901,55,Larynx,Right cTBS,Tone,Clear,30,5,1,0.49484189999930106,1
1902,55,Larynx,Right cTBS,Tone,Clear,31,3,1,0.6707322000002021,1
1903,55,Larynx,Right cTBS,Tone,Clear,32,4,1,0.649330699990969,1
1904,55,Larynx,Right cTBS,Tone,Clear,33,3,1,0.9028956999973159,1
1905,55,Larynx,Right cTBS,Tone,Clear,34,5,1,0.5927035000058821,1
1906,55,Larynx,Right cTBS,Tone,Clear,35,1,0,0.5809456999995749,1
1907,55,Larynx,Right cTBS,Tone,Clear,36,2,0,0.732147500006249,1
1908,55,Larynx,Right cTBS,Tone,Clear,37,1,0,0.556759099999908,1
1909,55,Larynx,Right cTBS,Tone,Clear,38,1,0,0.496836800011806,1
1910,55,Larynx,Right cTBS,Tone,Clear,39,3,1,0.5650117000041059,1
1911,55,Larynx,Right cTBS,Tone,Clear,40,1,0,0.478825099999085,1
1912,55,Larynx,Right cTBS,Tone,Clear,41,2,1,0.6100545000081179,1
1913,55,Larynx,Right cTBS,Tone,Clear,42,3,1,0.48011850001057604,1
1914,55,Larynx,Right cTBS,Tone,Clear,43,5,1,0.6103629999997789,1
1915,55,Larynx,Right cTBS,Tone,Clear,44,4,1,0.514021100010723,1
1916,55,Larynx,Right cTBS,Tone,Clear,45,2,0,0.6067426999943559,1
1917,55,Larynx,Right cTBS,Tone,Clear,46,5,1,0.48162929998943604,1
1918,55,Larynx,Right cTBS,Tone,Clear,47,3,1,0.743173900002148,1
1919,55,Larynx,Right cTBS,Tone,Clear,48,2,0,0.475292400005856,1
1920,55,Larynx,Right cTBS,Tone,Clear,49,1,0,0.6647608000057521,1
1921,55,Larynx,Right cTBS,Tone,Clear,50,3,1,0.599496099996031,1
1922,55,Larynx,Right cTBS,Tone,Clear,51,5,1,0.5324373999901579,1
1923,55,Larynx,Right cTBS,Tone,Clear,52,4,1,0.538263399997959,1
1924,55,Larynx,Right cTBS,Tone,Clear,53,3,1,0.690268999998807,1
1925,55,Larynx,Right cTBS,Tone,Clear,54,3,1,0.797642599995015,1
1926,55,Larynx,Right cTBS,Tone,Clear,55,3,1,0.598704900010489,1
1927,55,Larynx,Right cTBS,Tone,Clear,56,5,1,0.485128700005589,1
1928,55,Larynx,Right cTBS,Tone,Clear,57,4,1,0.7429641000053381,1
1929,55,Larynx,Right cTBS,Tone,Clear,58,2,0,0.621700799994869,1
1930,55,Larynx,Right cTBS,Tone,Clear,59,2,0,0.591966499996488,1
1931,55,Larynx,Right cTBS,Tone,Clear,60,1,0,0.543406400000094,1
1932,55,Larynx,Right cTBS,Tone,Clear,61,4,1,0.557884699999704,1
1933,55,Larynx,Right cTBS,Tone,Clear,62,2,0,0.463565600002767,1
1934,55,Larynx,Right cTBS,Tone,Clear,63,3,1,0.551453300009598,1
1935,55,Larynx,Right cTBS,Tone,Clear,64,4,1,0.49073170000338,1
1936,55,Larynx,Right cTBS,Tone,Clear,65,3,1,0.7686412000039129,1
1937,55,Larynx,Right cTBS,Tone,Clear,66,3,1,0.591103900005692,1
1938,55,Larynx,Right cTBS,Tone,Clear,67,4,1,0.4791065000026721,1
1939,55,Larynx,Right cTBS,Tone,Clear,68,1,0,0.528701899995212,1
1940,55,Larynx,Right cTBS,Tone,Clear,69,5,1,0.450136600004043,1
1941,55,Larynx,Right cTBS,Tone,Clear,70,1,0,0.5174732000014051,1
1942,55,Larynx,Right cTBS,Tone,Clear,71,2,1,0.664363899995806,1
1943,55,Larynx,Right cTBS,Tone,Clear,72,2,0,1.2069228000036698,1
1944,55,Larynx,Right cTBS,Tone,Clear,73,4,1,0.7859234000061409,1
1945,55,Larynx,Right cTBS,Tone,Clear,74,4,1,0.6756833999970699,1
1946,55,Larynx,Right cTBS,Tone,Clear,75,5,1,0.596354400011478,1
1947,55,Larynx,Right cTBS,Tone,Clear,76,1,0,0.5451703999860911,1
1948,55,Larynx,Right cTBS,Tone,Clear,77,3,1,0.918600399993011,1
1949,55,Larynx,Right cTBS,Tone,Clear,78,3,1,0.760363499997766,1
1950,55,Larynx,Right cTBS,Tone,Clear,79,2,1,0.739043599998695,1
1951,55,Larynx,Right cTBS,Tone,Clear,80,2,1,0.9205235999979781,1
1952,55,Larynx,Right cTBS,Tone,Clear,81,1,0,0.564576799995848,1
1953,55,Larynx,Right cTBS,Tone,Clear,82,5,1,0.582251700005145,1
1954,55,Larynx,Right cTBS,Tone,Clear,83,5,1,0.641991700002109,1
1955,55,Larynx,Right cTBS,Tone,Clear,84,2,0,0.9313364999979972,1
1956,55,Larynx,Right cTBS,Tone,Clear,85,4,0,0.66447839999455,1
1957,55,Larynx,Right cTBS,Tone,Clear,86,4,1,0.583454999999958,1
1958,55,Larynx,Right cTBS,Tone,Clear,87,2,1,0.874411500000861,1
1959,55,Larynx,Right cTBS,Tone,Clear,88,2,0,0.612052900003619,1
1960,55,Larynx,Right cTBS,Tone,Clear,89,3,1,0.4884687000012489,1
1961,55,Larynx,Right cTBS,Tone,Clear,90,2,1,0.8260569999984001,1
1962,55,Larynx,Right cTBS,Tone,Clear,91,3,1,0.6296326000010589,1
1963,55,Larynx,Right cTBS,Tone,Clear,92,3,1,0.5543727999902329,1
1964,55,Larynx,Right cTBS,Tone,Clear,93,1,0,0.5681479000049879,1
1965,55,Larynx,Right cTBS,Tone,Clear,94,2,0,0.8596531000075629,1
1966,55,Larynx,Right cTBS,Tone,Clear,95,5,1,0.51176549999218,1
1967,55,Larynx,Right cTBS,Tone,Clear,96,3,1,0.708504400012316,1
1968,55,Larynx,Right cTBS,Tone,Clear,97,3,1,0.553561199994874,1
1969,55,Larynx,Right cTBS,Tone,Clear,98,4,1,0.518217899996671,1
1970,55,Larynx,Right cTBS,Tone,Clear,99,1,0,0.566983600001549,1
1971,55,Larynx,Right cTBS,Tone,Clear,100,5,1,0.46546179999131704,1
1972,55,Larynx,Right cTBS,Tone,Clear,101,4,1,0.42281350000121204,1
1973,55,Larynx,Right cTBS,Tone,Clear,102,3,1,1.0902526999998399,1
1974,55,Larynx,Right cTBS,Tone,Clear,103,5,1,0.492738700006157,1
1975,55,Larynx,Right cTBS,Tone,Clear,104,4,1,1.1675513000082,1
1976,55,Larynx,Right cTBS,Tone,Clear,105,1,0,0.58959390000382,1
1977,55,Larynx,Right cTBS,Tone,Clear,106,4,1,0.569859800001723,1
1978,55,Larynx,Right cTBS,Tone,Clear,107,3,1,0.678329000002122,1
1979,55,Larynx,Right cTBS,Tone,Clear,108,3,1,0.837448599995696,1
1980,55,Larynx,Right cTBS,Tone,Clear,109,4,1,0.734006200000294,1
1981,55,Larynx,Right cTBS,Tone,Clear,110,1,0,0.802122399996733,1
1982,55,Larynx,Right cTBS,Tone,Clear,111,3,1,0.681727200004389,1
1983,55,Larynx,Right cTBS,Tone,Clear,112,3,1,0.49672969999664895,1
1984,55,Larynx,Right cTBS,Tone,Clear,113,4,1,0.575336300011259,1
1985,55,Larynx,Right cTBS,Tone,Clear,114,3,1,0.55698150000535,1
1986,55,Larynx,Right cTBS,Tone,Clear,115,5,1,0.6784495000028979,1
1987,55,Larynx,Right cTBS,Tone,Clear,116,2,1,1.3513015000062298,1
1988,55,Larynx,Right cTBS,Tone,Clear,117,1,0,1.02894069999456,1
1989,55,Larynx,Right cTBS,Tone,Clear,118,2,0,0.7547040999925229,1
1990,55,Larynx,Right cTBS,Tone,Clear,119,3,1,0.686692900009803,1
1991,55,Larynx,Right cTBS,Tone,Clear,120,3,1,1.32608179999806,1
1992,55,Larynx,Right cTBS,Tone,Clear,121,4,1,0.621446200006176,1
1993,55,Larynx,Right cTBS,Tone,Clear,122,5,1,0.5840553000016371,1
1994,55,Larynx,Right cTBS,Tone,Clear,123,5,1,0.579892399997334,1
1995,55,Larynx,Right cTBS,Tone,Clear,124,3,1,0.7591651999973691,1
1996,55,Larynx,Right cTBS,Tone,Clear,125,4,1,0.850921299992478,1
1997,55,Larynx,Right cTBS,Tone,Clear,126,3,1,0.733631300012348,1
1998,55,Larynx,Right cTBS,Tone,Clear,127,3,1,0.683465399997658,1
1999,55,Larynx,Right cTBS,Tone,Clear,128,4,1,0.6829864000028462,1
2000,55,Larynx,Right cTBS,Tone,Clear,129,4,1,1.00323380000191,1
2001,55,Larynx,Right cTBS,Tone,Clear,130,3,1,0.662271499997587,1
2002,55,Larynx,Right cTBS,Tone,Clear,131,4,1,0.582779400006984,1
2003,55,Larynx,Right cTBS,Tone,Clear,132,2,1,0.7219614999921758,1
2004,55,Larynx,Right cTBS,Tone,Clear,133,4,1,0.625719599993317,1
2005,55,Larynx,Right cTBS,Tone,Clear,134,1,0,0.46243949999916395,1
2006,55,Larynx,Right cTBS,Tone,Clear,135,5,1,0.4680205000040589,1
2007,55,Larynx,Right cTBS,Tone,Clear,136,1,0,0.47725189999619,1
2008,55,Larynx,Right cTBS,Tone,Clear,137,2,0,0.550779199998942,1
2009,55,Larynx,Right cTBS,Tone,Clear,138,4,1,0.8981650000059742,1
2010,55,Larynx,Right cTBS,Tone,Clear,139,4,1,0.557700299992575,1
2011,55,Larynx,Right cTBS,Tone,Clear,140,5,1,0.544216300011612,1
2012,55,Larynx,Right cTBS,Tone,Clear,141,3,1,1.41633860000002,1
2013,55,Larynx,Right cTBS,Tone,Clear,142,3,1,0.6725511000113331,1
2014,55,Larynx,Right cTBS,Tone,Clear,143,2,0,1.03879799999413,1
2015,55,Larynx,Right cTBS,Tone,Clear,144,1,0,0.671245699995779,1
2016,55,Larynx,Right cTBS,Tone,Clear,145,1,0,0.634634699992603,1
2017,55,Larynx,Right cTBS,Tone,Clear,146,2,1,0.847684399996069,1
2018,55,Larynx,Right cTBS,Tone,Clear,147,2,1,0.718192600004841,1
2019,55,Larynx,Right cTBS,Tone,Clear,148,3,1,0.9338694000034592,1
2020,55,Larynx,Right cTBS,Tone,Clear,149,2,0,0.864146799998707,1
2021,55,Larynx,Right cTBS,Tone,Clear,150,1,0,0.664024500001688,1
2022,55,Larynx,Right cTBS,Tone,Clear,151,2,1,1.1283833999914399,1
2023,55,Larynx,Right cTBS,Tone,Clear,152,3,1,1.58498790000158,1
2024,55,Larynx,Right cTBS,Tone,Clear,153,3,1,0.650914899990312,1
2025,55,Larynx,Right cTBS,Tone,Clear,154,5,1,0.612326600006782,1
2026,55,Larynx,Right cTBS,Tone,Clear,155,5,1,1.66147019999335,1
2027,55,Larynx,Right cTBS,Tone,Clear,156,1,0,0.535080900008325,1
2496,55,Larynx,Sham,Tone,Clear,1,3,1,1.16881900001317,1
2497,55,Larynx,Sham,Tone,Clear,2,3,1,0.6229444000637161,1
2498,55,Larynx,Sham,Tone,Clear,3,5,1,0.5427850000560279,1
2499,55,Larynx,Sham,Tone,Clear,4,1,0,0.521256300038658,1
2500,55,Larynx,Sham,Tone,Clear,5,2,0,1.0965779999969498,1
2501,55,Larynx,Sham,Tone,Clear,6,3,1,0.7118821999756619,1
2502,55,Larynx,Sham,Tone,Clear,7,2,1,1.24664759996813,1
2503,55,Larynx,Sham,Tone,Clear,8,2,1,0.6426535999635229,1
2504,55,Larynx,Sham,Tone,Clear,9,5,1,0.603717499994673,1
2505,55,Larynx,Sham,Tone,Clear,10,4,1,0.5435097999870779,1
2506,55,Larynx,Sham,Tone,Clear,11,5,1,0.876524100080132,1
2507,55,Larynx,Sham,Tone,Clear,12,1,0,0.6741131999297071,1
2508,55,Larynx,Sham,Tone,Clear,13,1,0,0.574243400013074,1
2509,55,Larynx,Sham,Tone,Clear,14,4,1,0.5846750000491739,1
2510,55,Larynx,Sham,Tone,Clear,15,5,1,1.0364407999440999,1
2511,55,Larynx,Sham,Tone,Clear,16,2,1,2.95307950000279,1
2512,55,Larynx,Sham,Tone,Clear,17,4,1,0.711600700044073,1
2513,55,Larynx,Sham,Tone,Clear,18,4,1,1.07111579994671,1
2514,55,Larynx,Sham,Tone,Clear,19,3,1,0.56396209995728,1
2515,55,Larynx,Sham,Tone,Clear,20,3,1,0.515576799982227,1
2516,55,Larynx,Sham,Tone,Clear,21,2,1,2.68179109995253,1
2517,55,Larynx,Sham,Tone,Clear,22,1,0,0.639202299993485,1
2518,55,Larynx,Sham,Tone,Clear,23,4,1,0.691141200019047,1
2519,55,Larynx,Sham,Tone,Clear,24,3,1,0.8956523000961171,1
2520,55,Larynx,Sham,Tone,Clear,25,3,1,0.6435827999375761,1
2521,55,Larynx,Sham,Tone,Clear,26,3,1,0.883813200052828,1
2522,55,Larynx,Sham,Tone,Clear,27,1,0,0.6890199999324979,1
2523,55,Larynx,Sham,Tone,Clear,28,5,1,0.664948099991307,1
2524,55,Larynx,Sham,Tone,Clear,29,2,0,2.2324013999896097,1
2525,55,Larynx,Sham,Tone,Clear,30,4,1,1.25563159992453,1
2526,55,Larynx,Sham,Tone,Clear,31,2,0,0.669360700063407,1
2527,55,Larynx,Sham,Tone,Clear,32,3,1,1.1706902999430902,1
2528,55,Larynx,Sham,Tone,Clear,33,3,1,0.8368011000566179,1
2529,55,Larynx,Sham,Tone,Clear,34,2,1,1.86905669991393,1
2530,55,Larynx,Sham,Tone,Clear,35,4,1,0.644219999900088,1
2531,55,Larynx,Sham,Tone,Clear,36,3,1,0.927137000020593,1
2532,55,Larynx,Sham,Tone,Clear,37,5,1,0.693377599935047,1
2533,55,Larynx,Sham,Tone,Clear,38,1,0,0.56275669997558,1
2534,55,Larynx,Sham,Tone,Clear,39,4,1,0.923118100035936,1
2535,55,Larynx,Sham,Tone,Clear,40,5,1,0.610601200023666,1
2536,55,Larynx,Sham,Tone,Clear,41,3,1,0.713091999990866,1
2537,55,Larynx,Sham,Tone,Clear,42,3,1,0.7634973999811341,1
2538,55,Larynx,Sham,Tone,Clear,43,4,1,0.720973399933428,1
2539,55,Larynx,Sham,Tone,Clear,44,3,1,0.793034699978307,1
2540,55,Larynx,Sham,Tone,Clear,45,4,1,1.46119459997863,1
2541,55,Larynx,Sham,Tone,Clear,46,1,0,0.648440200020559,1
2542,55,Larynx,Sham,Tone,Clear,47,3,1,1.20539150002878,1
2543,55,Larynx,Sham,Tone,Clear,48,2,0,1.29794419999234,1
2544,55,Larynx,Sham,Tone,Clear,49,1,0,0.8098574000177909,1
2545,55,Larynx,Sham,Tone,Clear,50,4,1,0.651255900040269,1
2546,55,Larynx,Sham,Tone,Clear,51,3,1,0.8636850999901071,1
2547,55,Larynx,Sham,Tone,Clear,52,3,1,1.59669440006837,1
2548,55,Larynx,Sham,Tone,Clear,53,1,0,0.637204200029373,1
2549,55,Larynx,Sham,Tone,Clear,54,5,1,0.730239399941638,1
2550,55,Larynx,Sham,Tone,Clear,55,2,1,0.75552120001521,1
2551,55,Larynx,Sham,Tone,Clear,56,1,0,0.8031847000820559,1
2552,55,Larynx,Sham,Tone,Clear,57,4,1,0.61292730004061,1
2553,55,Larynx,Sham,Tone,Clear,58,4,1,0.604926100000739,1
2554,55,Larynx,Sham,Tone,Clear,59,2,1,0.93306810001377,1
2555,55,Larynx,Sham,Tone,Clear,60,2,0,1.85759089991916,1
2556,55,Larynx,Sham,Tone,Clear,61,4,1,1.5799775000196001,1
2557,55,Larynx,Sham,Tone,Clear,62,3,1,0.6203653999837121,1
2558,55,Larynx,Sham,Tone,Clear,63,2,0,0.983969600056298,1
2559,55,Larynx,Sham,Tone,Clear,64,3,1,1.76361569995061,1
2560,55,Larynx,Sham,Tone,Clear,65,3,1,0.7866274999687449,1
2561,55,Larynx,Sham,Tone,Clear,66,5,1,0.684473900008015,1
2562,55,Larynx,Sham,Tone,Clear,67,2,0,2.7728070999728502,1
2563,55,Larynx,Sham,Tone,Clear,68,2,0,1.01113899995107,1
2564,55,Larynx,Sham,Tone,Clear,69,4,1,0.584203100064769,1
2565,55,Larynx,Sham,Tone,Clear,70,5,1,0.507637600065209,1
2566,55,Larynx,Sham,Tone,Clear,71,1,0,0.595189100014977,1
2567,55,Larynx,Sham,Tone,Clear,72,5,1,0.706576099968515,1
2568,55,Larynx,Sham,Tone,Clear,73,1,0,0.570827799965627,1
2569,55,Larynx,Sham,Tone,Clear,74,4,1,0.8997565000317991,1
2570,55,Larynx,Sham,Tone,Clear,75,3,1,0.8135910000419241,1
2571,55,Larynx,Sham,Tone,Clear,76,2,0,2.0464467999991,1
2572,55,Larynx,Sham,Tone,Clear,77,3,1,0.8287455000681802,1
2573,55,Larynx,Sham,Tone,Clear,78,5,1,0.691364800091833,1
2574,55,Larynx,Sham,Tone,Clear,79,4,1,0.56891499995254,1
2575,55,Larynx,Sham,Tone,Clear,80,5,1,1.1224273000843799,1
2576,55,Larynx,Sham,Tone,Clear,81,2,0,1.4627089999848997,1
2577,55,Larynx,Sham,Tone,Clear,82,3,0,2.78116520005278,1
2578,55,Larynx,Sham,Tone,Clear,83,4,1,1.13467719999608,1
2579,55,Larynx,Sham,Tone,Clear,84,4,1,1.21983129996806,1
2580,55,Larynx,Sham,Tone,Clear,85,2,1,1.05313190002926,1
2581,55,Larynx,Sham,Tone,Clear,86,2,1,0.6470536999404429,1
2582,55,Larynx,Sham,Tone,Clear,87,3,1,0.703610799973831,1
2583,55,Larynx,Sham,Tone,Clear,88,5,1,0.622508800006472,1
2584,55,Larynx,Sham,Tone,Clear,89,1,0,0.539680799935013,1
2585,55,Larynx,Sham,Tone,Clear,90,4,1,0.630617000046186,1
2586,55,Larynx,Sham,Tone,Clear,91,3,1,0.682136000017636,1
2587,55,Larynx,Sham,Tone,Clear,92,1,0,0.5421453000744799,1
2588,55,Larynx,Sham,Tone,Clear,93,3,1,0.6444041000213471,1
2589,55,Larynx,Sham,Tone,Clear,94,3,1,0.61515500000678,1
2590,55,Larynx,Sham,Tone,Clear,95,1,0,0.54343910003081,1
2591,55,Larynx,Sham,Tone,Clear,96,2,0,1.04370010003913,1
2592,55,Larynx,Sham,Tone,Clear,97,5,1,0.759939100011252,1
2593,55,Larynx,Sham,Tone,Clear,98,5,1,0.5216468999860809,1
2594,55,Larynx,Sham,Tone,Clear,99,4,1,0.773355499957688,1
2595,55,Larynx,Sham,Tone,Clear,100,3,1,0.621327699976973,1
2596,55,Larynx,Sham,Tone,Clear,101,3,1,0.7802087999880309,1
2597,55,Larynx,Sham,Tone,Clear,102,5,1,0.616277400054969,1
2598,55,Larynx,Sham,Tone,Clear,103,4,1,0.665646699955687,1
2599,55,Larynx,Sham,Tone,Clear,104,3,1,0.6320730999577789,1
2600,55,Larynx,Sham,Tone,Clear,105,2,0,0.961536300019361,1
2601,55,Larynx,Sham,Tone,Clear,106,4,1,0.69562550005503,1
2602,55,Larynx,Sham,Tone,Clear,107,1,0,0.6597559000365439,1
2603,55,Larynx,Sham,Tone,Clear,108,1,0,0.6577935999957839,1
2604,55,Larynx,Sham,Tone,Clear,109,3,1,0.812088100006804,1
2605,55,Larynx,Sham,Tone,Clear,110,2,0,0.661941000027582,1
2606,55,Larynx,Sham,Tone,Clear,111,1,0,1.06566009996459,1
2607,55,Larynx,Sham,Tone,Clear,112,5,1,0.58662329998333,1
2608,55,Larynx,Sham,Tone,Clear,113,2,0,0.667902999906801,1
2609,55,Larynx,Sham,Tone,Clear,114,4,1,1.22181979997549,1
2610,55,Larynx,Sham,Tone,Clear,115,3,1,0.912234100047499,1
2611,55,Larynx,Sham,Tone,Clear,116,3,1,0.715524800005369,1
2612,55,Larynx,Sham,Tone,Clear,117,2,0,0.565462099970318,1
2613,55,Larynx,Sham,Tone,Clear,118,1,0,0.53840710001532,1
2614,55,Larynx,Sham,Tone,Clear,119,4,1,0.515047600027174,1
2615,55,Larynx,Sham,Tone,Clear,120,4,1,2.26357510010712,1
2616,55,Larynx,Sham,Tone,Clear,121,2,1,1.31948270008434,1
2617,55,Larynx,Sham,Tone,Clear,122,1,1,1.31763710000087,1
2618,55,Larynx,Sham,Tone,Clear,123,2,1,1.99861399992369,1
2619,55,Larynx,Sham,Tone,Clear,124,5,1,0.6650852999882769,1
2620,55,Larynx,Sham,Tone,Clear,125,4,1,0.641834700014442,1
2621,55,Larynx,Sham,Tone,Clear,126,2,0,0.598786500049755,1
2622,55,Larynx,Sham,Tone,Clear,127,3,1,0.7919549000216651,1
2623,55,Larynx,Sham,Tone,Clear,128,4,1,0.578907700022683,1
2624,55,Larynx,Sham,Tone,Clear,129,3,1,1.05117230000906,1
2625,55,Larynx,Sham,Tone,Clear,130,1,0,0.6718397999648,1
2626,55,Larynx,Sham,Tone,Clear,131,2,0,0.8410573999863119,1
2627,55,Larynx,Sham,Tone,Clear,132,1,0,0.6992438999004661,1
2628,55,Larynx,Sham,Tone,Clear,133,3,1,0.982154399971478,1
2629,55,Larynx,Sham,Tone,Clear,134,4,1,0.6586527000181379,1
2630,55,Larynx,Sham,Tone,Clear,135,3,1,0.500173399923369,1
2631,55,Larynx,Sham,Tone,Clear,136,3,1,0.508990100002848,1
2632,55,Larynx,Sham,Tone,Clear,137,5,1,0.5394506000448019,1
2633,55,Larynx,Sham,Tone,Clear,138,2,0,0.615517399972305,1
2634,55,Larynx,Sham,Tone,Clear,139,3,1,0.62746990006417,1
2635,55,Larynx,Sham,Tone,Clear,140,2,1,0.6874280999181789,1
2636,55,Larynx,Sham,Tone,Clear,141,5,1,0.547228300012648,1
2637,55,Larynx,Sham,Tone,Clear,142,3,1,0.592347800033167,1
2638,55,Larynx,Sham,Tone,Clear,143,5,1,0.577419799985364,1
2639,55,Larynx,Sham,Tone,Clear,144,2,0,0.625134599977173,1
2640,55,Larynx,Sham,Tone,Clear,145,3,1,0.8758702999912199,1
2641,55,Larynx,Sham,Tone,Clear,146,1,0,0.601128799957223,1
2642,55,Larynx,Sham,Tone,Clear,147,3,1,0.6567192999646071,1
2643,55,Larynx,Sham,Tone,Clear,148,4,1,0.6903470000252131,1
2644,55,Larynx,Sham,Tone,Clear,149,4,1,0.938723100000061,1
2645,55,Larynx,Sham,Tone,Clear,150,2,0,0.594424999901094,1
2646,55,Larynx,Sham,Tone,Clear,151,5,1,0.871214700047858,1
2647,55,Larynx,Sham,Tone,Clear,152,3,1,0.628024899982847,1
2648,55,Larynx,Sham,Tone,Clear,153,3,1,0.678541900007986,1
2649,55,Larynx,Sham,Tone,Clear,154,5,1,0.699947100016288,1
2650,55,Larynx,Sham,Tone,Clear,155,4,1,1.39651340001728,1
2651,55,Larynx,Sham,Tone,Clear,156,1,0,0.5856899999780579,1
4992,104,Larynx,Right cTBS,Tone,Clear,1,3,0,0.9664267999469301,1
4993,104,Larynx,Right cTBS,Tone,Clear,2,4,1,0.6079387000063431,1
4994,104,Larynx,Right cTBS,Tone,Clear,3,4,1,0.610068699985277,1
4995,104,Larynx,Right cTBS,Tone,Clear,4,5,1,0.59610620001331,1
4996,104,Larynx,Right cTBS,Tone,Clear,5,4,1,0.5036958999698979,1
4997,104,Larynx,Right cTBS,Tone,Clear,6,4,1,0.522681000002194,1
4998,104,Larynx,Right cTBS,Tone,Clear,7,5,1,0.664107699994929,1
4999,104,Larynx,Right cTBS,Tone,Clear,8,5,1,0.637267199985217,1
5000,104,Larynx,Right cTBS,Tone,Clear,9,1,0,0.575467899965588,1
5001,104,Larynx,Right cTBS,Tone,Clear,10,3,1,0.615958599955775,1
5002,104,Larynx,Right cTBS,Tone,Clear,11,5,1,0.5629409000393929,1
5003,104,Larynx,Right cTBS,Tone,Clear,12,2,0,0.595782099990174,1
5004,104,Larynx,Right cTBS,Tone,Clear,13,3,1,0.694253200024832,1
5005,104,Larynx,Right cTBS,Tone,Clear,14,1,0,0.526599799981341,1
5006,104,Larynx,Right cTBS,Tone,Clear,15,1,0,0.6497740000486371,1
5007,104,Larynx,Right cTBS,Tone,Clear,16,2,0,0.603587399993557,1
5008,104,Larynx,Right cTBS,Tone,Clear,17,3,0,0.49345070001436403,1
5009,104,Larynx,Right cTBS,Tone,Clear,18,1,1,0.565799200034235,1
5010,104,Larynx,Right cTBS,Tone,Clear,19,3,1,0.613155799976084,1
5011,104,Larynx,Right cTBS,Tone,Clear,20,3,1,0.567863999982364,1
5012,104,Larynx,Right cTBS,Tone,Clear,21,3,1,0.5329580999678,1
5013,104,Larynx,Right cTBS,Tone,Clear,22,4,1,0.496550799987745,1
5014,104,Larynx,Right cTBS,Tone,Clear,23,4,1,0.6782138000126,1
5015,104,Larynx,Right cTBS,Tone,Clear,24,5,1,0.480289700033609,1
5016,104,Larynx,Right cTBS,Tone,Clear,25,3,1,0.628014100017026,1
5017,104,Larynx,Right cTBS,Tone,Clear,26,3,1,0.546689000038896,1
5018,104,Larynx,Right cTBS,Tone,Clear,27,3,1,0.644830599951092,1
5019,104,Larynx,Right cTBS,Tone,Clear,28,1,0,0.58539770002244,1
5020,104,Larynx,Right cTBS,Tone,Clear,29,4,1,0.563975199998822,1
5021,104,Larynx,Right cTBS,Tone,Clear,30,2,0,0.6718993000104089,1
5022,104,Larynx,Right cTBS,Tone,Clear,31,2,0,0.649852100003045,1
5023,104,Larynx,Right cTBS,Tone,Clear,32,3,1,0.547144000011031,1
5024,104,Larynx,Right cTBS,Tone,Clear,33,4,1,0.490758100000676,1
5025,104,Larynx,Right cTBS,Tone,Clear,34,5,1,0.536133599991445,1
5026,104,Larynx,Right cTBS,Tone,Clear,35,2,0,0.6355055999592879,1
5027,104,Larynx,Right cTBS,Tone,Clear,36,2,1,0.616880799992941,1
5028,104,Larynx,Right cTBS,Tone,Clear,37,2,1,0.7535268000210641,1
5029,104,Larynx,Right cTBS,Tone,Clear,38,1,0,0.49280890001682603,1
5030,104,Larynx,Right cTBS,Tone,Clear,39,2,0,0.844620799995027,1
5031,104,Larynx,Right cTBS,Tone,Clear,40,4,1,0.5159089000080711,1
5032,104,Larynx,Right cTBS,Tone,Clear,41,3,1,0.672950100037269,1
5033,104,Larynx,Right cTBS,Tone,Clear,42,4,1,0.5715085999690931,1
5034,104,Larynx,Right cTBS,Tone,Clear,43,1,0,0.5956074999994599,1
5035,104,Larynx,Right cTBS,Tone,Clear,44,1,0,0.4858934000367299,1
5036,104,Larynx,Right cTBS,Tone,Clear,45,2,0,0.545555600023363,1
5037,104,Larynx,Right cTBS,Tone,Clear,46,4,1,0.569801900011953,1
5038,104,Larynx,Right cTBS,Tone,Clear,47,4,1,0.523809999984223,1
5039,104,Larynx,Right cTBS,Tone,Clear,48,5,1,0.7107628000085241,1
5040,104,Larynx,Right cTBS,Tone,Clear,49,4,1,0.54737699998077,1
5041,104,Larynx,Right cTBS,Tone,Clear,50,2,0,0.579471499950159,1
5042,104,Larynx,Right cTBS,Tone,Clear,51,1,1,0.591265900002327,1
5043,104,Larynx,Right cTBS,Tone,Clear,52,3,1,0.621976200025529,1
5044,104,Larynx,Right cTBS,Tone,Clear,53,5,1,0.776976399996784,1
5045,104,Larynx,Right cTBS,Tone,Clear,54,2,0,0.780384899990167,1
5046,104,Larynx,Right cTBS,Tone,Clear,55,2,0,0.54460119997384,1
5047,104,Larynx,Right cTBS,Tone,Clear,56,3,1,0.695778399996925,1
5048,104,Larynx,Right cTBS,Tone,Clear,57,5,1,0.540641199972015,1
5049,104,Larynx,Right cTBS,Tone,Clear,58,3,1,0.74862289999146,1
5050,104,Larynx,Right cTBS,Tone,Clear,59,3,1,0.649552699993365,1
5051,104,Larynx,Right cTBS,Tone,Clear,60,2,0,0.6452401000424289,1
5052,104,Larynx,Right cTBS,Tone,Clear,61,3,1,0.6918216000194661,1
5053,104,Larynx,Right cTBS,Tone,Clear,62,4,1,0.563186699990183,1
5054,104,Larynx,Right cTBS,Tone,Clear,63,3,1,0.598472799989395,1
5055,104,Larynx,Right cTBS,Tone,Clear,64,5,1,0.5683064999757329,1
5056,104,Larynx,Right cTBS,Tone,Clear,65,3,1,0.570676300034393,1
5057,104,Larynx,Right cTBS,Tone,Clear,66,3,1,0.577297499985434,1
5058,104,Larynx,Right cTBS,Tone,Clear,67,4,1,0.554566900013015,1
5059,104,Larynx,Right cTBS,Tone,Clear,68,1,0,0.551461900002323,1
5060,104,Larynx,Right cTBS,Tone,Clear,69,3,1,0.536031200026628,1
5061,104,Larynx,Right cTBS,Tone,Clear,70,5,1,0.606120500015095,1
5062,104,Larynx,Right cTBS,Tone,Clear,71,3,1,0.593387599976268,1
5063,104,Larynx,Right cTBS,Tone,Clear,72,4,1,0.5693821000168101,1
5064,104,Larynx,Right cTBS,Tone,Clear,73,5,1,0.53221149998717,1
5065,104,Larynx,Right cTBS,Tone,Clear,74,2,0,0.609690700017381,1
5066,104,Larynx,Right cTBS,Tone,Clear,75,1,1,0.599971699994057,1
5067,104,Larynx,Right cTBS,Tone,Clear,76,2,0,0.961792799993418,1
5068,104,Larynx,Right cTBS,Tone,Clear,77,1,0,0.5999417999992149,1
5069,104,Larynx,Right cTBS,Tone,Clear,78,2,0,0.6090988999931141,1
5070,104,Larynx,Right cTBS,Tone,Clear,79,5,1,0.645382099959534,1
5071,104,Larynx,Right cTBS,Tone,Clear,80,2,0,0.6257883000071159,1
5072,104,Larynx,Right cTBS,Tone,Clear,81,2,1,0.808676499989815,1
5073,104,Larynx,Right cTBS,Tone,Clear,82,2,0,0.624791999987792,1
5074,104,Larynx,Right cTBS,Tone,Clear,83,4,1,0.609553500020411,1
5075,104,Larynx,Right cTBS,Tone,Clear,84,2,0,0.576764600002207,1
5076,104,Larynx,Right cTBS,Tone,Clear,85,2,0,0.731468399986625,1
5077,104,Larynx,Right cTBS,Tone,Clear,86,1,0,0.6378487999900239,1
5078,104,Larynx,Right cTBS,Tone,Clear,87,5,1,0.595820799993817,1
5079,104,Larynx,Right cTBS,Tone,Clear,88,5,1,0.775801499956287,1
5080,104,Larynx,Right cTBS,Tone,Clear,89,3,1,0.7585924000013621,1
5081,104,Larynx,Right cTBS,Tone,Clear,90,3,1,0.6134544999804351,1
5082,104,Larynx,Right cTBS,Tone,Clear,91,3,1,0.578521399991587,1
5083,104,Larynx,Right cTBS,Tone,Clear,92,4,1,0.585235699953046,1
5084,104,Larynx,Right cTBS,Tone,Clear,93,4,1,0.676566900045145,1
5085,104,Larynx,Right cTBS,Tone,Clear,94,5,1,0.6517065999796611,1
5086,104,Larynx,Right cTBS,Tone,Clear,95,4,1,0.522718499996699,1
5087,104,Larynx,Right cTBS,Tone,Clear,96,5,1,0.537120299995877,1
5088,104,Larynx,Right cTBS,Tone,Clear,97,1,0,0.574134700000286,1
5089,104,Larynx,Right cTBS,Tone,Clear,98,3,1,0.616378800012171,1
5090,104,Larynx,Right cTBS,Tone,Clear,99,1,0,0.6118634000304161,1
5091,104,Larynx,Right cTBS,Tone,Clear,100,3,1,0.7281721000326801,1
5092,104,Larynx,Right cTBS,Tone,Clear,101,1,0,0.571178499958478,1
5093,104,Larynx,Right cTBS,Tone,Clear,102,4,1,0.573717899969779,1
5094,104,Larynx,Right cTBS,Tone,Clear,103,3,1,0.557178699993528,1
5095,104,Larynx,Right cTBS,Tone,Clear,104,4,1,0.542490000021644,1
5096,104,Larynx,Right cTBS,Tone,Clear,105,2,0,0.518316200003028,1
5097,104,Larynx,Right cTBS,Tone,Clear,106,3,1,0.548986700014211,1
5098,104,Larynx,Right cTBS,Tone,Clear,107,3,1,0.559996599971782,1
5099,104,Larynx,Right cTBS,Tone,Clear,108,5,1,0.5221403000177821,1
5100,104,Larynx,Right cTBS,Tone,Clear,109,3,1,0.6108751000138001,1
5101,104,Larynx,Right cTBS,Tone,Clear,110,2,0,0.645198399957735,1
5102,104,Larynx,Right cTBS,Tone,Clear,111,1,0,0.559999999997672,1
5103,104,Larynx,Right cTBS,Tone,Clear,112,4,1,0.516628900018986,1
5104,104,Larynx,Right cTBS,Tone,Clear,113,3,1,0.535799800010864,1
5105,104,Larynx,Right cTBS,Tone,Clear,114,4,1,0.539692000020295,1
5106,104,Larynx,Right cTBS,Tone,Clear,115,1,0,0.655857300036587,1
5107,104,Larynx,Right cTBS,Tone,Clear,116,2,0,0.854068699991331,1
5108,104,Larynx,Right cTBS,Tone,Clear,117,3,1,0.576575199957006,1
5109,104,Larynx,Right cTBS,Tone,Clear,118,1,0,0.762128499976825,1
5110,104,Larynx,Right cTBS,Tone,Clear,119,3,0,0.66569370002253,1
5111,104,Larynx,Right cTBS,Tone,Clear,120,1,0,0.6326479999697769,1
5112,104,Larynx,Right cTBS,Tone,Clear,121,3,0,0.598469399963506,1
5113,104,Larynx,Right cTBS,Tone,Clear,122,2,0,0.684535900014453,1
5114,104,Larynx,Right cTBS,Tone,Clear,123,4,1,0.5993671999895009,1
5115,104,Larynx,Right cTBS,Tone,Clear,124,4,1,0.5695671999710611,1
5116,104,Larynx,Right cTBS,Tone,Clear,125,3,0,0.619958600029349,1
5117,104,Larynx,Right cTBS,Tone,Clear,126,3,1,0.815164499974344,1
5118,104,Larynx,Right cTBS,Tone,Clear,127,2,0,0.8148606999893672,1
5119,104,Larynx,Right cTBS,Tone,Clear,128,4,1,0.729231600009371,1
5120,104,Larynx,Right cTBS,Tone,Clear,129,5,1,0.623797500040382,1
5121,104,Larynx,Right cTBS,Tone,Clear,130,2,0,0.608629499969538,1
5122,104,Larynx,Right cTBS,Tone,Clear,131,1,0,0.66455569997197,1
5123,104,Larynx,Right cTBS,Tone,Clear,132,2,0,0.646256099978928,1
5124,104,Larynx,Right cTBS,Tone,Clear,133,5,1,0.546038899978157,1
5125,104,Larynx,Right cTBS,Tone,Clear,134,3,1,0.71778710000217,1
5126,104,Larynx,Right cTBS,Tone,Clear,135,3,1,0.708922100020573,1
5127,104,Larynx,Right cTBS,Tone,Clear,136,3,1,0.587757299945224,1
5128,104,Larynx,Right cTBS,Tone,Clear,137,2,0,0.64185010001529,1
5129,104,Larynx,Right cTBS,Tone,Clear,138,3,1,0.614079700026196,1
5130,104,Larynx,Right cTBS,Tone,Clear,139,4,1,0.648012000019662,1
5131,104,Larynx,Right cTBS,Tone,Clear,140,3,1,0.610492700012401,1
5132,104,Larynx,Right cTBS,Tone,Clear,141,4,1,0.539910699997563,1
5133,104,Larynx,Right cTBS,Tone,Clear,142,1,0,0.571984399983194,1
5134,104,Larynx,Right cTBS,Tone,Clear,143,5,1,0.5468254000297751,1
5135,104,Larynx,Right cTBS,Tone,Clear,144,2,0,0.678228400007356,1
5136,104,Larynx,Right cTBS,Tone,Clear,145,3,1,0.5890514000202529,1
5137,104,Larynx,Right cTBS,Tone,Clear,146,4,1,0.5622462999890561,1
5138,104,Larynx,Right cTBS,Tone,Clear,147,1,0,0.552077100030147,1
5139,104,Larynx,Right cTBS,Tone,Clear,148,1,0,0.556014200032223,1
5140,104,Larynx,Right cTBS,Tone,Clear,149,2,1,0.519847600022331,1
5141,104,Larynx,Right cTBS,Tone,Clear,150,5,1,0.633699099998921,1
5142,104,Larynx,Right cTBS,Tone,Clear,151,5,1,0.587458399997558,1
5143,104,Larynx,Right cTBS,Tone,Clear,152,5,1,0.6406471999944189,1
5144,104,Larynx,Right cTBS,Tone,Clear,153,4,1,0.493972400028724,1
5145,104,Larynx,Right cTBS,Tone,Clear,154,3,1,0.5820256000151861,1
5146,104,Larynx,Right cTBS,Tone,Clear,155,2,0,0.606968599953689,1
5147,104,Larynx,Right cTBS,Tone,Clear,156,4,1,0.5824271999881601,1
5616,104,Larynx,Sham,Tone,Clear,1,3,0,0.7461044000228871,1
5617,104,Larynx,Sham,Tone,Clear,2,3,0,0.6262017999542879,1
5618,104,Larynx,Sham,Tone,Clear,3,5,1,0.651367199956439,1
5619,104,Larynx,Sham,Tone,Clear,4,1,0,0.547613399976399,1
5620,104,Larynx,Sham,Tone,Clear,5,2,0,0.59058310004184,1
5621,104,Larynx,Sham,Tone,Clear,6,3,1,0.5602333999704571,1
5622,104,Larynx,Sham,Tone,Clear,7,2,0,0.789718999993056,1
5623,104,Larynx,Sham,Tone,Clear,8,2,0,0.6330386999761689,1
5624,104,Larynx,Sham,Tone,Clear,9,5,1,0.49529960000654705,1
5625,104,Larynx,Sham,Tone,Clear,10,4,1,0.536458999966271,1
5626,104,Larynx,Sham,Tone,Clear,11,5,1,0.4541460999753329,1
5627,104,Larynx,Sham,Tone,Clear,12,1,0,0.559067199996207,1
5628,104,Larynx,Sham,Tone,Clear,13,1,0,0.6148508000187579,1
5629,104,Larynx,Sham,Tone,Clear,14,4,1,0.537425999995321,1
5630,104,Larynx,Sham,Tone,Clear,15,5,1,0.47943659999873495,1
5631,104,Larynx,Sham,Tone,Clear,16,2,0,0.575246400025208,1
5632,104,Larynx,Sham,Tone,Clear,17,4,1,0.6398255999665711,1
5633,104,Larynx,Sham,Tone,Clear,18,4,1,0.5631702999817211,1
5634,104,Larynx,Sham,Tone,Clear,19,3,0,0.558484300039709,1
5635,104,Larynx,Sham,Tone,Clear,20,3,1,0.530058900010772,1
5636,104,Larynx,Sham,Tone,Clear,21,2,0,0.571846699982416,1
5637,104,Larynx,Sham,Tone,Clear,22,1,0,0.592346800025553,1
5638,104,Larynx,Sham,Tone,Clear,23,4,1,0.47514009999577,1
5639,104,Larynx,Sham,Tone,Clear,24,3,1,0.7200135000166479,1
5640,104,Larynx,Sham,Tone,Clear,25,3,1,0.5552484000218101,1
5641,104,Larynx,Sham,Tone,Clear,26,3,1,0.4832515000016429,1
5642,104,Larynx,Sham,Tone,Clear,27,1,0,0.475936600007117,1
5643,104,Larynx,Sham,Tone,Clear,28,5,1,0.544058799976483,1
5644,104,Larynx,Sham,Tone,Clear,29,2,0,0.5618730999995021,1
5645,104,Larynx,Sham,Tone,Clear,30,4,1,0.44343430001754297,1
5646,104,Larynx,Sham,Tone,Clear,31,2,0,0.6429700999869971,1
5647,104,Larynx,Sham,Tone,Clear,32,3,1,0.484759399958421,1
5648,104,Larynx,Sham,Tone,Clear,33,3,1,0.584764699975494,1
5649,104,Larynx,Sham,Tone,Clear,34,2,0,0.6561645999900071,1
5650,104,Larynx,Sham,Tone,Clear,35,4,1,0.62493709998671,1
5651,104,Larynx,Sham,Tone,Clear,36,3,0,0.657256399979815,1
5652,104,Larynx,Sham,Tone,Clear,37,5,1,1.01787159999367,1
5653,104,Larynx,Sham,Tone,Clear,38,1,0,0.556470100011211,1
5654,104,Larynx,Sham,Tone,Clear,39,4,1,0.548961499996949,1
5655,104,Larynx,Sham,Tone,Clear,40,5,1,0.548447699984536,1
5656,104,Larynx,Sham,Tone,Clear,41,3,1,0.78801190003287,1
5657,104,Larynx,Sham,Tone,Clear,42,3,1,0.973154200008139,1
5658,104,Larynx,Sham,Tone,Clear,43,4,1,0.588603200041689,1
5659,104,Larynx,Sham,Tone,Clear,44,3,0,0.541800600010902,1
5660,104,Larynx,Sham,Tone,Clear,45,4,1,0.6797749999677759,1
5661,104,Larynx,Sham,Tone,Clear,46,1,0,0.514984599954914,1
5662,104,Larynx,Sham,Tone,Clear,47,3,1,0.583982200012542,1
5663,104,Larynx,Sham,Tone,Clear,48,2,0,0.625317500031088,1
5664,104,Larynx,Sham,Tone,Clear,49,1,0,0.5962136000161989,1
5665,104,Larynx,Sham,Tone,Clear,50,4,1,0.45473489997675604,1
5666,104,Larynx,Sham,Tone,Clear,51,3,1,0.479067100037355,1
5667,104,Larynx,Sham,Tone,Clear,52,3,1,0.7344797999830921,1
5668,104,Larynx,Sham,Tone,Clear,53,1,0,0.570301199972164,1
5669,104,Larynx,Sham,Tone,Clear,54,5,1,0.49656229995889595,1
5670,104,Larynx,Sham,Tone,Clear,55,2,0,0.688634899968747,1
5671,104,Larynx,Sham,Tone,Clear,56,1,1,0.5614055999903941,1
5672,104,Larynx,Sham,Tone,Clear,57,4,1,0.510980999970343,1
5673,104,Larynx,Sham,Tone,Clear,58,4,1,0.465712099976372,1
5674,104,Larynx,Sham,Tone,Clear,59,2,0,0.5395833000075071,1
5675,104,Larynx,Sham,Tone,Clear,60,2,1,0.511191600002348,1
5676,104,Larynx,Sham,Tone,Clear,61,4,1,0.515669199987315,1
5677,104,Larynx,Sham,Tone,Clear,62,3,0,0.601155399985146,1
5678,104,Larynx,Sham,Tone,Clear,63,2,0,0.812664200027939,1
5679,104,Larynx,Sham,Tone,Clear,64,3,1,0.5839713999885129,1
5680,104,Larynx,Sham,Tone,Clear,65,3,0,0.546862000017427,1
5681,104,Larynx,Sham,Tone,Clear,66,5,0,0.536499099980574,1
5682,104,Larynx,Sham,Tone,Clear,67,2,0,0.719454400008544,1
5683,104,Larynx,Sham,Tone,Clear,68,2,0,0.6457144000451079,1
5684,104,Larynx,Sham,Tone,Clear,69,4,1,0.502312500029802,1
5685,104,Larynx,Sham,Tone,Clear,70,5,1,0.474092499993276,1
5686,104,Larynx,Sham,Tone,Clear,71,1,1,0.447359699988738,1
5687,104,Larynx,Sham,Tone,Clear,72,5,1,0.6298646000213921,1
5688,104,Larynx,Sham,Tone,Clear,73,1,0,0.556415400002152,1
5689,104,Larynx,Sham,Tone,Clear,74,4,1,0.44123510003555605,1
5690,104,Larynx,Sham,Tone,Clear,75,3,0,0.5703913000179449,1
5691,104,Larynx,Sham,Tone,Clear,76,2,0,0.6535777999670239,1
5692,104,Larynx,Sham,Tone,Clear,77,3,1,0.7819288999889978,1
5693,104,Larynx,Sham,Tone,Clear,78,5,1,0.46963970002252603,1
5694,104,Larynx,Sham,Tone,Clear,79,4,0,0.601298499968834,1
5695,104,Larynx,Sham,Tone,Clear,80,5,1,0.547034999995958,1
5696,104,Larynx,Sham,Tone,Clear,81,2,0,0.6730512999929489,1
5697,104,Larynx,Sham,Tone,Clear,82,3,1,0.667646199988667,1
5698,104,Larynx,Sham,Tone,Clear,83,4,1,0.520667300035711,1
5699,104,Larynx,Sham,Tone,Clear,84,4,1,0.5878937999950721,1
5700,104,Larynx,Sham,Tone,Clear,85,2,1,0.7150673000141979,1
5701,104,Larynx,Sham,Tone,Clear,86,2,0,0.8230509000131859,1
5702,104,Larynx,Sham,Tone,Clear,87,3,1,0.501437800005078,1
5703,104,Larynx,Sham,Tone,Clear,88,5,1,0.6174371000379321,1
5704,104,Larynx,Sham,Tone,Clear,89,1,0,0.55154290003702,1
5705,104,Larynx,Sham,Tone,Clear,90,4,1,0.49813409999478603,1
5706,104,Larynx,Sham,Tone,Clear,91,3,0,0.492316199990455,1
5707,104,Larynx,Sham,Tone,Clear,92,1,0,0.666952600004151,1
5708,104,Larynx,Sham,Tone,Clear,93,3,1,0.559924400004093,1
5709,104,Larynx,Sham,Tone,Clear,94,3,1,0.483912600029726,1
5710,104,Larynx,Sham,Tone,Clear,95,1,0,0.562771099968813,1
5711,104,Larynx,Sham,Tone,Clear,96,2,0,0.5801358000026079,1
5712,104,Larynx,Sham,Tone,Clear,97,5,1,0.47189639997668603,1
5713,104,Larynx,Sham,Tone,Clear,98,5,1,0.46303840004839003,1
5714,104,Larynx,Sham,Tone,Clear,99,4,1,0.694006100005936,1
5715,104,Larynx,Sham,Tone,Clear,100,3,1,0.46119729999918496,1
5716,104,Larynx,Sham,Tone,Clear,101,3,1,0.6248599999817089,1
5717,104,Larynx,Sham,Tone,Clear,102,5,1,0.5578153000096789,1
5718,104,Larynx,Sham,Tone,Clear,103,4,1,0.538183700002264,1
5719,104,Larynx,Sham,Tone,Clear,104,3,1,0.43988760001957394,1
5720,104,Larynx,Sham,Tone,Clear,105,2,0,0.649454200000037,1
5721,104,Larynx,Sham,Tone,Clear,106,4,1,0.5526833999902011,1
5722,104,Larynx,Sham,Tone,Clear,107,1,0,0.6245045000105159,1
5723,104,Larynx,Sham,Tone,Clear,108,1,0,0.576954899996053,1
5724,104,Larynx,Sham,Tone,Clear,109,3,0,0.5719328999985009,1
5725,104,Larynx,Sham,Tone,Clear,110,2,1,0.5266997000435371,1
5726,104,Larynx,Sham,Tone,Clear,111,1,0,0.7394724000478159,1
5727,104,Larynx,Sham,Tone,Clear,112,5,1,0.417501399992034,1
5728,104,Larynx,Sham,Tone,Clear,113,2,1,0.576731599983759,1
5729,104,Larynx,Sham,Tone,Clear,114,4,1,0.658923399983905,1
5730,104,Larynx,Sham,Tone,Clear,115,3,1,0.534329499991145,1
5731,104,Larynx,Sham,Tone,Clear,116,3,0,0.623810299963225,1
5732,104,Larynx,Sham,Tone,Clear,117,2,0,0.713078000000678,1
5733,104,Larynx,Sham,Tone,Clear,118,1,0,0.702737600018736,1
5734,104,Larynx,Sham,Tone,Clear,119,4,1,0.45378499996149896,1
5735,104,Larynx,Sham,Tone,Clear,120,4,1,0.532743200019468,1
5736,104,Larynx,Sham,Tone,Clear,121,2,0,0.601168600027449,1
5737,104,Larynx,Sham,Tone,Clear,122,1,0,0.594152599980589,1
5738,104,Larynx,Sham,Tone,Clear,123,2,1,0.561358399980236,1
5739,104,Larynx,Sham,Tone,Clear,124,5,1,0.541015599970706,1
5740,104,Larynx,Sham,Tone,Clear,125,4,1,0.525034899997991,1
5741,104,Larynx,Sham,Tone,Clear,126,2,1,0.6709714999888089,1
5742,104,Larynx,Sham,Tone,Clear,127,3,1,0.6928526999545279,1
5743,104,Larynx,Sham,Tone,Clear,128,4,0,0.5935836000135171,1
5744,104,Larynx,Sham,Tone,Clear,129,3,0,0.6591991999885071,1
5745,104,Larynx,Sham,Tone,Clear,130,1,0,0.7273569999961179,1
5746,104,Larynx,Sham,Tone,Clear,131,2,1,0.512863499985542,1
5747,104,Larynx,Sham,Tone,Clear,132,1,0,0.8545184999820781,1
5748,104,Larynx,Sham,Tone,Clear,133,3,0,0.7514537000097329,1
5749,104,Larynx,Sham,Tone,Clear,134,4,1,0.546822400006931,1
5750,104,Larynx,Sham,Tone,Clear,135,3,1,0.7488018000149169,1
5751,104,Larynx,Sham,Tone,Clear,136,3,1,0.593604499998037,1
5752,104,Larynx,Sham,Tone,Clear,137,5,1,0.69338880002033,1
5753,104,Larynx,Sham,Tone,Clear,138,2,0,0.7695414000190791,1
5754,104,Larynx,Sham,Tone,Clear,139,3,1,0.7201938999933191,1
5755,104,Larynx,Sham,Tone,Clear,140,2,1,0.543994400009979,1
5756,104,Larynx,Sham,Tone,Clear,141,5,1,0.533274799992796,1
5757,104,Larynx,Sham,Tone,Clear,142,3,0,0.653478499967605,1
5758,104,Larynx,Sham,Tone,Clear,143,5,1,0.555612299998757,1
5759,104,Larynx,Sham,Tone,Clear,144,2,0,0.6847901999717579,1
5760,104,Larynx,Sham,Tone,Clear,145,3,1,0.768855899979826,1
5761,104,Larynx,Sham,Tone,Clear,146,1,0,0.614138000004459,1
5762,104,Larynx,Sham,Tone,Clear,147,3,1,0.585270699986722,1
5763,104,Larynx,Sham,Tone,Clear,148,4,1,0.503485900000669,1
5764,104,Larynx,Sham,Tone,Clear,149,4,1,0.505519700003788,1
5765,104,Larynx,Sham,Tone,Clear,150,2,0,0.541936099994928,1
5766,104,Larynx,Sham,Tone,Clear,151,5,1,0.5371672000037511,1
5767,104,Larynx,Sham,Tone,Clear,152,3,0,0.546386400004849,1
5768,104,Larynx,Sham,Tone,Clear,153,3,0,0.7437565000145699,1
5769,104,Larynx,Sham,Tone,Clear,154,5,1,0.489477899973281,1
5770,104,Larynx,Sham,Tone,Clear,155,4,1,0.58005539997248,1
5771,104,Larynx,Sham,Tone,Clear,156,1,0,0.619593499985058,1
8112,123,Larynx,Right cTBS,Tone,Clear,1,4,1,1.1731027000350902,1
8113,123,Larynx,Right cTBS,Tone,Clear,2,1,0,0.96701220003888,1
8114,123,Larynx,Right cTBS,Tone,Clear,3,3,1,0.590571900014766,1
8115,123,Larynx,Right cTBS,Tone,Clear,4,2,0,0.702786699985154,1
8116,123,Larynx,Right cTBS,Tone,Clear,5,4,0,0.5689290000591429,1
8117,123,Larynx,Right cTBS,Tone,Clear,6,3,1,0.6997783998958771,1
8118,123,Larynx,Right cTBS,Tone,Clear,7,4,1,0.6499579999363051,1
8119,123,Larynx,Right cTBS,Tone,Clear,8,5,1,0.48110249999444893,1
8120,123,Larynx,Right cTBS,Tone,Clear,9,4,1,0.504172799992375,1
8121,123,Larynx,Right cTBS,Tone,Clear,10,4,1,0.7792780000017959,1
8122,123,Larynx,Right cTBS,Tone,Clear,11,2,0,0.4945812999503689,1
8123,123,Larynx,Right cTBS,Tone,Clear,12,3,1,0.47056909999810204,1
8124,123,Larynx,Right cTBS,Tone,Clear,13,2,0,0.634393000043929,1
8125,123,Larynx,Right cTBS,Tone,Clear,14,2,0,0.6472160000121221,1
8126,123,Larynx,Right cTBS,Tone,Clear,15,3,1,0.5120790000073611,1
8127,123,Larynx,Right cTBS,Tone,Clear,16,5,1,0.548389100003988,1
8128,123,Larynx,Right cTBS,Tone,Clear,17,5,1,0.46067559998482505,1
8129,123,Larynx,Right cTBS,Tone,Clear,18,3,1,0.8358125000959259,1
8130,123,Larynx,Right cTBS,Tone,Clear,19,3,1,0.545425500022247,1
8131,123,Larynx,Right cTBS,Tone,Clear,20,1,0,0.513526599970646,1
8132,123,Larynx,Right cTBS,Tone,Clear,21,2,0,0.626106700045057,1
8133,123,Larynx,Right cTBS,Tone,Clear,22,5,1,0.416915299952962,1
8134,123,Larynx,Right cTBS,Tone,Clear,23,3,1,0.46175569994375104,1
8135,123,Larynx,Right cTBS,Tone,Clear,24,5,1,0.47026370000094203,1
8136,123,Larynx,Right cTBS,Tone,Clear,25,3,0,0.46735609997995203,1
8137,123,Larynx,Right cTBS,Tone,Clear,26,2,1,0.367988299927674,1
8138,123,Larynx,Right cTBS,Tone,Clear,27,1,0,0.56263680011034,1
8139,123,Larynx,Right cTBS,Tone,Clear,28,1,0,0.7936279999557879,1
8140,123,Larynx,Right cTBS,Tone,Clear,29,3,1,0.606826400035061,1
8141,123,Larynx,Right cTBS,Tone,Clear,30,2,1,1.11489590001293,1
8142,123,Larynx,Right cTBS,Tone,Clear,31,3,1,0.75214859994594,1
8143,123,Larynx,Right cTBS,Tone,Clear,32,4,1,0.626972700003535,1
8144,123,Larynx,Right cTBS,Tone,Clear,33,5,1,0.691357400035486,1
8145,123,Larynx,Right cTBS,Tone,Clear,34,1,0,0.458130000042729,1
8146,123,Larynx,Right cTBS,Tone,Clear,35,1,0,0.536298000020906,1
8147,123,Larynx,Right cTBS,Tone,Clear,36,3,1,0.6630968999816099,1
8148,123,Larynx,Right cTBS,Tone,Clear,37,4,1,1.00372230005451,1
8149,123,Larynx,Right cTBS,Tone,Clear,38,4,1,0.867501999950036,1
8150,123,Larynx,Right cTBS,Tone,Clear,39,2,1,0.487148700049147,1
8151,123,Larynx,Right cTBS,Tone,Clear,40,4,1,0.7663216999499131,1
8152,123,Larynx,Right cTBS,Tone,Clear,41,2,0,0.48595650005154295,1
8153,123,Larynx,Right cTBS,Tone,Clear,42,5,1,0.6533518000505861,1
8154,123,Larynx,Right cTBS,Tone,Clear,43,1,0,0.6995060000335799,1
8155,123,Larynx,Right cTBS,Tone,Clear,44,5,1,0.49921239994000605,1
8156,123,Larynx,Right cTBS,Tone,Clear,45,3,1,0.525043099885806,1
8157,123,Larynx,Right cTBS,Tone,Clear,46,4,1,0.441833900054917,1
8158,123,Larynx,Right cTBS,Tone,Clear,47,3,1,0.757427399978042,1
8159,123,Larynx,Right cTBS,Tone,Clear,48,2,0,0.566697500064038,1
8160,123,Larynx,Right cTBS,Tone,Clear,49,2,0,1.5755417000036698,1
8161,123,Larynx,Right cTBS,Tone,Clear,50,4,1,0.7867555000120771,1
8162,123,Larynx,Right cTBS,Tone,Clear,51,1,0,0.6588543000398199,1
8163,123,Larynx,Right cTBS,Tone,Clear,52,3,1,0.647494199918583,1
8164,123,Larynx,Right cTBS,Tone,Clear,53,2,1,0.546320599969476,1
8165,123,Larynx,Right cTBS,Tone,Clear,54,4,1,0.59246269997675,1
8166,123,Larynx,Right cTBS,Tone,Clear,55,1,0,0.43497770000249103,1
8167,123,Larynx,Right cTBS,Tone,Clear,56,3,1,0.419222300057299,1
8168,123,Larynx,Right cTBS,Tone,Clear,57,1,0,0.567026100005023,1
8169,123,Larynx,Right cTBS,Tone,Clear,58,3,1,0.523104599909857,1
8170,123,Larynx,Right cTBS,Tone,Clear,59,5,1,0.460352800088003,1
8171,123,Larynx,Right cTBS,Tone,Clear,60,3,1,0.44017509999684995,1
8172,123,Larynx,Right cTBS,Tone,Clear,61,2,0,0.6955996999749909,1
8173,123,Larynx,Right cTBS,Tone,Clear,62,4,1,0.776788299903274,1
8174,123,Larynx,Right cTBS,Tone,Clear,63,1,0,0.7184989000670609,1
8175,123,Larynx,Right cTBS,Tone,Clear,64,2,0,0.9475234999554231,1
8176,123,Larynx,Right cTBS,Tone,Clear,65,2,0,0.633517800015397,1
8177,123,Larynx,Right cTBS,Tone,Clear,66,4,1,1.21220519999042,1
8178,123,Larynx,Right cTBS,Tone,Clear,67,5,1,1.01111700001638,1
8179,123,Larynx,Right cTBS,Tone,Clear,68,4,1,0.590871100081131,1
8180,123,Larynx,Right cTBS,Tone,Clear,69,3,1,0.854790000012144,1
8181,123,Larynx,Right cTBS,Tone,Clear,70,2,0,0.48306839994620504,1
8182,123,Larynx,Right cTBS,Tone,Clear,71,3,1,0.9313434000359849,1
8183,123,Larynx,Right cTBS,Tone,Clear,72,3,1,0.515436899964698,1
8184,123,Larynx,Right cTBS,Tone,Clear,73,1,0,0.4895471000345421,1
8185,123,Larynx,Right cTBS,Tone,Clear,74,5,1,0.605199599987827,1
8186,123,Larynx,Right cTBS,Tone,Clear,75,3,1,0.482191500021145,1
8187,123,Larynx,Right cTBS,Tone,Clear,76,5,1,0.5814795000478629,1
8188,123,Larynx,Right cTBS,Tone,Clear,77,3,1,0.811928000068292,1
8189,123,Larynx,Right cTBS,Tone,Clear,78,4,1,0.932598800049163,1
8190,123,Larynx,Right cTBS,Tone,Clear,79,3,1,2.10655290004797,1
8191,123,Larynx,Right cTBS,Tone,Clear,80,2,0,0.526066499995068,1
8192,123,Larynx,Right cTBS,Tone,Clear,81,1,0,0.678071099915542,1
8193,123,Larynx,Right cTBS,Tone,Clear,82,2,0,0.6187477000057701,1
8194,123,Larynx,Right cTBS,Tone,Clear,83,5,1,0.530824900022708,1
8195,123,Larynx,Right cTBS,Tone,Clear,84,2,0,0.7464215999934821,1
8196,123,Larynx,Right cTBS,Tone,Clear,85,5,1,0.5374270000029361,1
8197,123,Larynx,Right cTBS,Tone,Clear,86,3,1,1.09040630003437,1
8198,123,Larynx,Right cTBS,Tone,Clear,87,4,1,0.711571800056845,1
8199,123,Larynx,Right cTBS,Tone,Clear,88,5,0,0.442212800029665,1
8200,123,Larynx,Right cTBS,Tone,Clear,89,3,0,0.527304199989885,1
8201,123,Larynx,Right cTBS,Tone,Clear,90,1,1,0.497438399936073,1
8202,123,Larynx,Right cTBS,Tone,Clear,91,2,0,1.2363317999988799,1
8203,123,Larynx,Right cTBS,Tone,Clear,92,1,0,0.988742600078695,1
8204,123,Larynx,Right cTBS,Tone,Clear,93,4,1,0.576131700072438,1
8205,123,Larynx,Right cTBS,Tone,Clear,94,2,0,0.785124900052324,1
8206,123,Larynx,Right cTBS,Tone,Clear,95,1,0,0.615160700050183,1
8207,123,Larynx,Right cTBS,Tone,Clear,96,3,1,0.38917580002453206,1
8208,123,Larynx,Right cTBS,Tone,Clear,97,3,1,0.39617869991343496,1
8209,123,Larynx,Right cTBS,Tone,Clear,98,1,0,0.570309499977157,1
8210,123,Larynx,Right cTBS,Tone,Clear,99,4,1,0.597609299933538,1
8211,123,Larynx,Right cTBS,Tone,Clear,100,4,1,0.382946399971843,1
8212,123,Larynx,Right cTBS,Tone,Clear,101,4,1,0.431594699970447,1
8213,123,Larynx,Right cTBS,Tone,Clear,102,5,1,0.43203440005891,1
8214,123,Larynx,Right cTBS,Tone,Clear,103,3,1,0.77512070001103,1
8215,123,Larynx,Right cTBS,Tone,Clear,104,3,1,0.7377047999762,1
8216,123,Larynx,Right cTBS,Tone,Clear,105,4,1,0.563564000069164,1
8217,123,Larynx,Right cTBS,Tone,Clear,106,2,0,0.476135900011286,1
8218,123,Larynx,Right cTBS,Tone,Clear,107,3,1,0.9450337999733159,1
8219,123,Larynx,Right cTBS,Tone,Clear,108,4,1,0.570926700020209,1
8220,123,Larynx,Right cTBS,Tone,Clear,109,2,0,0.522641399991699,1
8221,123,Larynx,Right cTBS,Tone,Clear,110,1,0,0.5890592999057839,1
8222,123,Larynx,Right cTBS,Tone,Clear,111,5,1,0.517303500091657,1
8223,123,Larynx,Right cTBS,Tone,Clear,112,3,1,0.544820499955677,1
8224,123,Larynx,Right cTBS,Tone,Clear,113,4,1,0.560930500039831,1
8225,123,Larynx,Right cTBS,Tone,Clear,114,2,1,0.42435440002009295,1
8226,123,Larynx,Right cTBS,Tone,Clear,115,3,0,1.55854400002863,1
8227,123,Larynx,Right cTBS,Tone,Clear,116,5,1,0.5868483000667769,1
8228,123,Larynx,Right cTBS,Tone,Clear,117,3,1,0.770014499896206,1
8229,123,Larynx,Right cTBS,Tone,Clear,118,3,1,0.55551530001685,1
8230,123,Larynx,Right cTBS,Tone,Clear,119,1,0,0.5415248000063,1
8231,123,Larynx,Right cTBS,Tone,Clear,120,2,1,0.471295000053942,1
8232,123,Larynx,Right cTBS,Tone,Clear,121,5,1,0.7819191999733449,1
8233,123,Larynx,Right cTBS,Tone,Clear,122,3,1,0.8843002000357959,1
8234,123,Larynx,Right cTBS,Tone,Clear,123,4,1,0.663297499995679,1
8235,123,Larynx,Right cTBS,Tone,Clear,124,2,0,0.799300199956633,1
8236,123,Larynx,Right cTBS,Tone,Clear,125,1,0,0.556440399959683,1
8237,123,Larynx,Right cTBS,Tone,Clear,126,4,1,0.455456199939363,1
8238,123,Larynx,Right cTBS,Tone,Clear,127,5,1,0.43115020007826393,1
8239,123,Larynx,Right cTBS,Tone,Clear,128,3,1,0.420629200059921,1
8240,123,Larynx,Right cTBS,Tone,Clear,129,3,1,0.609076499938965,1
8241,123,Larynx,Right cTBS,Tone,Clear,130,3,1,0.5376934999367221,1
8242,123,Larynx,Right cTBS,Tone,Clear,131,5,1,0.56020389997866,1
8243,123,Larynx,Right cTBS,Tone,Clear,132,2,0,0.521066499990411,1
8244,123,Larynx,Right cTBS,Tone,Clear,133,1,0,0.551543900044635,1
8245,123,Larynx,Right cTBS,Tone,Clear,134,1,0,0.81525630003307,1
8246,123,Larynx,Right cTBS,Tone,Clear,135,4,1,0.5586045000236479,1
8247,123,Larynx,Right cTBS,Tone,Clear,136,2,0,0.6427041999995711,1
8248,123,Larynx,Right cTBS,Tone,Clear,137,4,1,0.5025955000892279,1
8249,123,Larynx,Right cTBS,Tone,Clear,138,3,1,0.4887662000255661,1
8250,123,Larynx,Right cTBS,Tone,Clear,139,3,1,0.45968590001575604,1
8251,123,Larynx,Right cTBS,Tone,Clear,140,2,0,0.677030800026841,1
8252,123,Larynx,Right cTBS,Tone,Clear,141,5,1,0.388918599928729,1
8253,123,Larynx,Right cTBS,Tone,Clear,142,3,1,1.11801280011423,1
8254,123,Larynx,Right cTBS,Tone,Clear,143,3,1,0.5449191000079739,1
8255,123,Larynx,Right cTBS,Tone,Clear,144,3,1,0.489816599991173,1
8256,123,Larynx,Right cTBS,Tone,Clear,145,1,0,0.538494399981573,1
8257,123,Larynx,Right cTBS,Tone,Clear,146,4,1,0.391264499980025,1
8258,123,Larynx,Right cTBS,Tone,Clear,147,3,1,0.376240100013092,1
8259,123,Larynx,Right cTBS,Tone,Clear,148,5,1,0.35481549997348294,1
8260,123,Larynx,Right cTBS,Tone,Clear,149,4,1,0.40220079990103796,1
8261,123,Larynx,Right cTBS,Tone,Clear,150,5,1,0.412617099937052,1
8262,123,Larynx,Right cTBS,Tone,Clear,151,2,0,0.536764999968,1
8263,123,Larynx,Right cTBS,Tone,Clear,152,4,1,0.31957940000574997,1
8264,123,Larynx,Right cTBS,Tone,Clear,153,4,1,0.31874749995768104,1
8265,123,Larynx,Right cTBS,Tone,Clear,154,2,1,0.302730700001121,1
8266,123,Larynx,Right cTBS,Tone,Clear,155,1,0,1.43898330000229,1
8267,123,Larynx,Right cTBS,Tone,Clear,156,2,1,0.41483239992521703,1
8736,123,Larynx,Sham,Tone,Clear,1,4,1,0.862170199980028,1
8737,123,Larynx,Sham,Tone,Clear,2,2,0,0.5595041000051421,1
8738,123,Larynx,Sham,Tone,Clear,3,2,0,0.6769343999912961,1
8739,123,Larynx,Sham,Tone,Clear,4,3,0,0.664124400005676,1
8740,123,Larynx,Sham,Tone,Clear,5,3,1,0.506878000102006,1
8741,123,Larynx,Sham,Tone,Clear,6,3,1,0.363215000019409,1
8742,123,Larynx,Sham,Tone,Clear,7,4,1,0.413163699908182,1
8743,123,Larynx,Sham,Tone,Clear,8,1,0,0.561461800010875,1
8744,123,Larynx,Sham,Tone,Clear,9,1,0,0.5766646000556651,1
8745,123,Larynx,Sham,Tone,Clear,10,2,0,0.784153799992055,1
8746,123,Larynx,Sham,Tone,Clear,11,2,1,0.44519879994913897,1
8747,123,Larynx,Sham,Tone,Clear,12,4,1,0.467710400000215,1
8748,123,Larynx,Sham,Tone,Clear,13,5,1,0.449038999970071,1
8749,123,Larynx,Sham,Tone,Clear,14,5,1,0.573221900034696,1
8750,123,Larynx,Sham,Tone,Clear,15,3,1,0.791846999898553,1
8751,123,Larynx,Sham,Tone,Clear,16,2,0,0.47912700008601,1
8752,123,Larynx,Sham,Tone,Clear,17,4,1,0.463297800044529,1
8753,123,Larynx,Sham,Tone,Clear,18,1,0,0.582482099998742,1
8754,123,Larynx,Sham,Tone,Clear,19,1,0,0.5991487000137571,1
8755,123,Larynx,Sham,Tone,Clear,20,3,1,0.464048399939202,1
8756,123,Larynx,Sham,Tone,Clear,21,3,1,0.556530900066718,1
8757,123,Larynx,Sham,Tone,Clear,22,2,0,0.72516260005068,1
8758,123,Larynx,Sham,Tone,Clear,23,5,1,0.467286000028253,1
8759,123,Larynx,Sham,Tone,Clear,24,4,1,0.6648837999673559,1
8760,123,Larynx,Sham,Tone,Clear,25,5,1,0.501729400013573,1
8761,123,Larynx,Sham,Tone,Clear,26,3,1,0.8293680000351741,1
8762,123,Larynx,Sham,Tone,Clear,27,4,1,0.526583700091578,1
8763,123,Larynx,Sham,Tone,Clear,28,3,1,0.657946899998933,1
8764,123,Larynx,Sham,Tone,Clear,29,1,0,0.618689900031313,1
8765,123,Larynx,Sham,Tone,Clear,30,5,1,0.646685599931516,1
8766,123,Larynx,Sham,Tone,Clear,31,1,0,0.6595277000451459,1
8767,123,Larynx,Sham,Tone,Clear,32,3,1,0.602194499922916,1
8768,123,Larynx,Sham,Tone,Clear,33,5,1,0.43901720002759204,1
8769,123,Larynx,Sham,Tone,Clear,34,3,1,0.443887400091626,1
8770,123,Larynx,Sham,Tone,Clear,35,3,1,0.5928860999410971,1
8771,123,Larynx,Sham,Tone,Clear,36,2,1,0.412555699935183,1
8772,123,Larynx,Sham,Tone,Clear,37,4,1,0.450949700083584,1
8773,123,Larynx,Sham,Tone,Clear,38,2,1,0.6281628999859089,1
8774,123,Larynx,Sham,Tone,Clear,39,4,1,0.460737499990501,1
8775,123,Larynx,Sham,Tone,Clear,40,2,0,0.5710067999316379,1
8776,123,Larynx,Sham,Tone,Clear,41,3,1,0.52716080006212,1
8777,123,Larynx,Sham,Tone,Clear,42,5,1,0.38958369998727,1
8778,123,Larynx,Sham,Tone,Clear,43,4,1,0.38512990006711295,1
8779,123,Larynx,Sham,Tone,Clear,44,1,0,0.5413294000318271,1
8780,123,Larynx,Sham,Tone,Clear,45,2,1,0.588907399913296,1
8781,123,Larynx,Sham,Tone,Clear,46,5,1,0.44411899999249704,1
8782,123,Larynx,Sham,Tone,Clear,47,1,0,0.672099100076593,1
8783,123,Larynx,Sham,Tone,Clear,48,3,1,0.656817900016904,1
8784,123,Larynx,Sham,Tone,Clear,49,1,0,0.575084600015543,1
8785,123,Larynx,Sham,Tone,Clear,50,3,1,0.47230640007183,1
8786,123,Larynx,Sham,Tone,Clear,51,1,1,0.45701380004175,1
8787,123,Larynx,Sham,Tone,Clear,52,4,1,0.5466517000459129,1
8788,123,Larynx,Sham,Tone,Clear,53,5,1,0.514330800040625,1
8789,123,Larynx,Sham,Tone,Clear,54,4,1,0.548379100044258,1
8790,123,Larynx,Sham,Tone,Clear,55,4,1,0.43523139995522797,1
8791,123,Larynx,Sham,Tone,Clear,56,5,1,0.40302720002364395,1
8792,123,Larynx,Sham,Tone,Clear,57,2,0,0.618700899998657,1
8793,123,Larynx,Sham,Tone,Clear,58,2,0,0.677249899948947,1
8794,123,Larynx,Sham,Tone,Clear,59,5,1,0.48582930001430197,1
8795,123,Larynx,Sham,Tone,Clear,60,3,1,0.655395200010389,1
8796,123,Larynx,Sham,Tone,Clear,61,3,0,0.580950199975632,1
8797,123,Larynx,Sham,Tone,Clear,62,4,1,0.5079453999642279,1
8798,123,Larynx,Sham,Tone,Clear,63,2,0,0.576529800076969,1
8799,123,Larynx,Sham,Tone,Clear,64,2,1,0.5656689000315961,1
8800,123,Larynx,Sham,Tone,Clear,65,1,1,0.716017399914563,1
8801,123,Larynx,Sham,Tone,Clear,66,4,1,0.6111564999446271,1
8802,123,Larynx,Sham,Tone,Clear,67,3,1,0.7028245000401511,1
8803,123,Larynx,Sham,Tone,Clear,68,3,1,0.554445500019938,1
8804,123,Larynx,Sham,Tone,Clear,69,3,1,0.8224696000106629,1
8805,123,Larynx,Sham,Tone,Clear,70,4,1,0.543204899993725,1
8806,123,Larynx,Sham,Tone,Clear,71,5,1,0.5011886999709529,1
8807,123,Larynx,Sham,Tone,Clear,72,2,0,0.54206820006948,1
8808,123,Larynx,Sham,Tone,Clear,73,2,0,0.8043484999798242,1
8809,123,Larynx,Sham,Tone,Clear,74,3,1,0.660762500017881,1
8810,123,Larynx,Sham,Tone,Clear,75,3,1,0.938543600030243,1
8811,123,Larynx,Sham,Tone,Clear,76,3,1,0.621757399989292,1
8812,123,Larynx,Sham,Tone,Clear,77,1,0,0.581201500026509,1
8813,123,Larynx,Sham,Tone,Clear,78,4,1,0.491875099949539,1
8814,123,Larynx,Sham,Tone,Clear,79,2,0,0.537234399933368,1
8815,123,Larynx,Sham,Tone,Clear,80,4,1,0.38813889992889,1
8816,123,Larynx,Sham,Tone,Clear,81,2,1,0.41353520005941397,1
8817,123,Larynx,Sham,Tone,Clear,82,3,1,0.44924230000469795,1
8818,123,Larynx,Sham,Tone,Clear,83,2,1,0.394055599928834,1
8819,123,Larynx,Sham,Tone,Clear,84,5,0,0.470660799997859,1
8820,123,Larynx,Sham,Tone,Clear,85,3,1,0.644044199958444,1
8821,123,Larynx,Sham,Tone,Clear,86,5,1,0.43782700004521796,1
8822,123,Larynx,Sham,Tone,Clear,87,4,1,0.37262770009692797,1
8823,123,Larynx,Sham,Tone,Clear,88,4,1,0.411449100007303,1
8824,123,Larynx,Sham,Tone,Clear,89,1,0,0.562814200064167,1
8825,123,Larynx,Sham,Tone,Clear,90,3,1,0.7382935000350699,1
8826,123,Larynx,Sham,Tone,Clear,91,5,1,0.42716479999944607,1
8827,123,Larynx,Sham,Tone,Clear,92,4,1,0.40410869999322996,1
8828,123,Larynx,Sham,Tone,Clear,93,2,0,0.45034620002843395,1
8829,123,Larynx,Sham,Tone,Clear,94,3,1,0.741742699989118,1
8830,123,Larynx,Sham,Tone,Clear,95,2,0,0.6176803000271321,1
8831,123,Larynx,Sham,Tone,Clear,96,5,1,0.39409630000591295,1
8832,123,Larynx,Sham,Tone,Clear,97,3,1,0.36195320007391296,1
8833,123,Larynx,Sham,Tone,Clear,98,3,1,0.34979170002043203,1
8834,123,Larynx,Sham,Tone,Clear,99,2,0,0.576032200013287,1
8835,123,Larynx,Sham,Tone,Clear,100,1,1,0.41832890000659995,1
8836,123,Larynx,Sham,Tone,Clear,101,4,1,0.5010518999770279,1
8837,123,Larynx,Sham,Tone,Clear,102,1,0,0.5791600999655201,1
8838,123,Larynx,Sham,Tone,Clear,103,3,1,0.548051199992187,1
8839,123,Larynx,Sham,Tone,Clear,104,4,1,0.416630799998529,1
8840,123,Larynx,Sham,Tone,Clear,105,4,1,0.570444399956614,1
8841,123,Larynx,Sham,Tone,Clear,106,1,1,0.387721200007945,1
8842,123,Larynx,Sham,Tone,Clear,107,2,0,0.878395000007004,1
8843,123,Larynx,Sham,Tone,Clear,108,3,1,0.477847800008021,1
8844,123,Larynx,Sham,Tone,Clear,109,5,1,1.59177759999875,1
8845,123,Larynx,Sham,Tone,Clear,110,4,1,0.5112540000118321,1
8846,123,Larynx,Sham,Tone,Clear,111,5,1,0.759080599993467,1
8847,123,Larynx,Sham,Tone,Clear,112,3,1,0.677266500075348,1
8848,123,Larynx,Sham,Tone,Clear,113,2,0,0.451649299939163,1
8849,123,Larynx,Sham,Tone,Clear,114,3,1,0.610181599971838,1
8850,123,Larynx,Sham,Tone,Clear,115,3,1,0.411813999991864,1
8851,123,Larynx,Sham,Tone,Clear,116,1,0,0.619627399952151,1
8852,123,Larynx,Sham,Tone,Clear,117,1,0,0.86018930003047,1
8853,123,Larynx,Sham,Tone,Clear,118,5,1,0.38788519997615395,1
8854,123,Larynx,Sham,Tone,Clear,119,4,1,0.506925900001079,1
8855,123,Larynx,Sham,Tone,Clear,120,3,1,0.38386029994580895,1
8856,123,Larynx,Sham,Tone,Clear,121,4,1,0.39067520003300205,1
8857,123,Larynx,Sham,Tone,Clear,122,3,1,0.42365159990731605,1
8858,123,Larynx,Sham,Tone,Clear,123,4,1,0.5450957999564711,1
8859,123,Larynx,Sham,Tone,Clear,124,2,0,0.596500399988145,1
8860,123,Larynx,Sham,Tone,Clear,125,5,1,0.602845499990508,1
8861,123,Larynx,Sham,Tone,Clear,126,1,0,0.570858299965039,1
8862,123,Larynx,Sham,Tone,Clear,127,2,0,0.621310199960135,1
8863,123,Larynx,Sham,Tone,Clear,128,3,1,0.48555109999142604,1
8864,123,Larynx,Sham,Tone,Clear,129,3,1,0.363101799972355,1
8865,123,Larynx,Sham,Tone,Clear,130,4,1,0.352152500068769,1
8866,123,Larynx,Sham,Tone,Clear,131,3,1,0.452323299949057,1
8867,123,Larynx,Sham,Tone,Clear,132,2,1,0.34509709989652,1
8868,123,Larynx,Sham,Tone,Clear,133,4,1,0.62360459996853,1
8869,123,Larynx,Sham,Tone,Clear,134,3,1,0.414889900013804,1
8870,123,Larynx,Sham,Tone,Clear,135,5,1,0.38976960000582,1
8871,123,Larynx,Sham,Tone,Clear,136,3,1,0.364767799968831,1
8872,123,Larynx,Sham,Tone,Clear,137,2,1,0.742596400086768,1
8873,123,Larynx,Sham,Tone,Clear,138,3,1,0.505346999969333,1
8874,123,Larynx,Sham,Tone,Clear,139,1,0,0.5419694999000061,1
8875,123,Larynx,Sham,Tone,Clear,140,2,0,0.8847054999787359,1
8876,123,Larynx,Sham,Tone,Clear,141,1,1,0.39015729993116105,1
8877,123,Larynx,Sham,Tone,Clear,142,5,1,0.451116999960504,1
8878,123,Larynx,Sham,Tone,Clear,143,1,0,0.666407500044443,1
8879,123,Larynx,Sham,Tone,Clear,144,4,1,0.48867160000372706,1
8880,123,Larynx,Sham,Tone,Clear,145,1,1,0.39384939998853996,1
8881,123,Larynx,Sham,Tone,Clear,146,4,1,0.618862500065006,1
8882,123,Larynx,Sham,Tone,Clear,147,3,1,0.49511789996177,1
8883,123,Larynx,Sham,Tone,Clear,148,2,1,0.399345900048502,1
8884,123,Larynx,Sham,Tone,Clear,149,2,0,0.98884869995527,1
8885,123,Larynx,Sham,Tone,Clear,150,5,1,0.38784760003909496,1
8886,123,Larynx,Sham,Tone,Clear,151,3,1,0.45995139994192896,1
8887,123,Larynx,Sham,Tone,Clear,152,4,1,0.462737299967557,1
8888,123,Larynx,Sham,Tone,Clear,153,5,1,0.48224730009678796,1
8889,123,Larynx,Sham,Tone,Clear,154,1,0,0.5293886999133971,1
8890,123,Larynx,Sham,Tone,Clear,155,2,0,0.574470699997619,1
8891,123,Larynx,Sham,Tone,Clear,156,3,1,0.427681299974211,1
11232,139,Larynx,Right cTBS,Tone,Clear,1,3,1,0.8731025999877601,1
11233,139,Larynx,Right cTBS,Tone,Clear,2,4,1,0.607666000025347,1
11234,139,Larynx,Right cTBS,Tone,Clear,3,2,0,0.907597600016743,1
11235,139,Larynx,Right cTBS,Tone,Clear,4,5,1,0.559906500042416,1
11236,139,Larynx,Right cTBS,Tone,Clear,5,2,0,0.6303962999954821,1
11237,139,Larynx,Right cTBS,Tone,Clear,6,3,1,0.8015223999973391,1
11238,139,Larynx,Right cTBS,Tone,Clear,7,2,0,0.610588999988977,1
11239,139,Larynx,Right cTBS,Tone,Clear,8,5,1,0.570061500009615,1
11240,139,Larynx,Right cTBS,Tone,Clear,9,1,0,0.675340100016911,1
11241,139,Larynx,Right cTBS,Tone,Clear,10,3,0,0.87470739998389,1
11242,139,Larynx,Right cTBS,Tone,Clear,11,4,1,0.684832600003574,1
11243,139,Larynx,Right cTBS,Tone,Clear,12,3,1,0.9648571999860001,1
11244,139,Larynx,Right cTBS,Tone,Clear,13,5,1,0.766923399991356,1
11245,139,Larynx,Right cTBS,Tone,Clear,14,4,1,0.733236800006125,1
11246,139,Larynx,Right cTBS,Tone,Clear,15,4,1,0.710766999982297,1
11247,139,Larynx,Right cTBS,Tone,Clear,16,2,0,0.578654500015546,1
11248,139,Larynx,Right cTBS,Tone,Clear,17,4,1,0.747853199951351,1
11249,139,Larynx,Right cTBS,Tone,Clear,18,3,1,1.02870259998599,1
11250,139,Larynx,Right cTBS,Tone,Clear,19,1,0,0.562191099976189,1
11251,139,Larynx,Right cTBS,Tone,Clear,20,2,0,0.928040000027977,1
11252,139,Larynx,Right cTBS,Tone,Clear,21,3,1,0.70879360003164,1
11253,139,Larynx,Right cTBS,Tone,Clear,22,5,1,0.8399649999919351,1
11254,139,Larynx,Right cTBS,Tone,Clear,23,4,1,0.731558099971153,1
11255,139,Larynx,Right cTBS,Tone,Clear,24,1,0,0.542464500002097,1
11256,139,Larynx,Right cTBS,Tone,Clear,25,5,1,0.5469134000013579,1
11257,139,Larynx,Right cTBS,Tone,Clear,26,2,0,0.714255500002764,1
11258,139,Larynx,Right cTBS,Tone,Clear,27,3,0,1.1960818999796201,1
11259,139,Larynx,Right cTBS,Tone,Clear,28,1,0,0.779536799993366,1
11260,139,Larynx,Right cTBS,Tone,Clear,29,4,1,0.5380592999863439,1
11261,139,Larynx,Right cTBS,Tone,Clear,30,1,0,0.6598383000236939,1
11262,139,Larynx,Right cTBS,Tone,Clear,31,1,0,0.6340140000102111,1
11263,139,Larynx,Right cTBS,Tone,Clear,32,3,1,0.593691999965813,1
11264,139,Larynx,Right cTBS,Tone,Clear,33,5,1,0.6704637999646371,1
11265,139,Larynx,Right cTBS,Tone,Clear,34,2,0,0.605620499991346,1
11266,139,Larynx,Right cTBS,Tone,Clear,35,4,1,0.692247400002088,1
11267,139,Larynx,Right cTBS,Tone,Clear,36,2,0,0.523510400031228,1
11268,139,Larynx,Right cTBS,Tone,Clear,37,3,1,0.6434244000120091,1
11269,139,Larynx,Right cTBS,Tone,Clear,38,3,0,0.589942699996755,1
11270,139,Larynx,Right cTBS,Tone,Clear,39,3,1,1.07349300000351,1
11271,139,Larynx,Right cTBS,Tone,Clear,40,2,0,0.578556999971624,1
11272,139,Larynx,Right cTBS,Tone,Clear,41,4,1,0.9365643000346608,1
11273,139,Larynx,Right cTBS,Tone,Clear,42,4,1,0.923909100005403,1
11274,139,Larynx,Right cTBS,Tone,Clear,43,2,0,0.515240699984133,1
11275,139,Larynx,Right cTBS,Tone,Clear,44,3,1,0.882088399957865,1
11276,139,Larynx,Right cTBS,Tone,Clear,45,3,1,1.01546149997739,1
11277,139,Larynx,Right cTBS,Tone,Clear,46,1,0,0.636291900009383,1
11278,139,Larynx,Right cTBS,Tone,Clear,47,4,1,0.6217632000334561,1
11279,139,Larynx,Right cTBS,Tone,Clear,48,3,0,0.5669395999866539,1
11280,139,Larynx,Right cTBS,Tone,Clear,49,2,0,0.674941100005526,1
11281,139,Larynx,Right cTBS,Tone,Clear,50,5,1,0.46525459998520097,1
11282,139,Larynx,Right cTBS,Tone,Clear,51,1,0,0.7109014000161551,1
11283,139,Larynx,Right cTBS,Tone,Clear,52,5,1,0.540251600032207,1
11284,139,Larynx,Right cTBS,Tone,Clear,53,4,1,0.7571975999744609,1
11285,139,Larynx,Right cTBS,Tone,Clear,54,3,1,0.7392832000041379,1
11286,139,Larynx,Right cTBS,Tone,Clear,55,1,0,0.445768200035673,1
11287,139,Larynx,Right cTBS,Tone,Clear,56,5,1,0.505821299972013,1
11288,139,Larynx,Right cTBS,Tone,Clear,57,3,0,0.58016230002977,1
11289,139,Larynx,Right cTBS,Tone,Clear,58,4,1,0.5599216999835329,1
11290,139,Larynx,Right cTBS,Tone,Clear,59,3,0,0.757556400028989,1
11291,139,Larynx,Right cTBS,Tone,Clear,60,2,0,0.641427299997304,1
11292,139,Larynx,Right cTBS,Tone,Clear,61,3,1,0.960051600006409,1
11293,139,Larynx,Right cTBS,Tone,Clear,62,3,1,0.8897473000106401,1
11294,139,Larynx,Right cTBS,Tone,Clear,63,2,0,0.6668193999794311,1
11295,139,Larynx,Right cTBS,Tone,Clear,64,5,1,0.5658313999883829,1
11296,139,Larynx,Right cTBS,Tone,Clear,65,5,1,0.550118500017561,1
11297,139,Larynx,Right cTBS,Tone,Clear,66,1,0,0.602840900013689,1
11298,139,Larynx,Right cTBS,Tone,Clear,67,3,1,0.633357800019439,1
11299,139,Larynx,Right cTBS,Tone,Clear,68,4,1,0.6522728999843821,1
11300,139,Larynx,Right cTBS,Tone,Clear,69,2,0,0.573082500020973,1
11301,139,Larynx,Right cTBS,Tone,Clear,70,3,1,0.610970400040969,1
11302,139,Larynx,Right cTBS,Tone,Clear,71,3,1,0.927637099986896,1
11303,139,Larynx,Right cTBS,Tone,Clear,72,2,0,0.629542400012724,1
11304,139,Larynx,Right cTBS,Tone,Clear,73,1,0,0.708156400010921,1
11305,139,Larynx,Right cTBS,Tone,Clear,74,4,1,0.517423900018912,1
11306,139,Larynx,Right cTBS,Tone,Clear,75,5,1,0.676868900016416,1
11307,139,Larynx,Right cTBS,Tone,Clear,76,1,0,0.6897091999999251,1
11308,139,Larynx,Right cTBS,Tone,Clear,77,2,0,1.16554600000381,1
11309,139,Larynx,Right cTBS,Tone,Clear,78,4,1,0.506454299960751,1
11310,139,Larynx,Right cTBS,Tone,Clear,79,3,0,0.69497859996045,1
11311,139,Larynx,Right cTBS,Tone,Clear,80,4,1,0.782422499964014,1
11312,139,Larynx,Right cTBS,Tone,Clear,81,2,0,0.593157899973448,1
11313,139,Larynx,Right cTBS,Tone,Clear,82,1,0,0.6666918999981141,1
11314,139,Larynx,Right cTBS,Tone,Clear,83,1,0,0.8938834000146021,1
11315,139,Larynx,Right cTBS,Tone,Clear,84,3,1,0.876066599972546,1
11316,139,Larynx,Right cTBS,Tone,Clear,85,3,1,0.6523678999510589,1
11317,139,Larynx,Right cTBS,Tone,Clear,86,5,1,0.683241599996109,1
11318,139,Larynx,Right cTBS,Tone,Clear,87,5,1,0.6670157000189649,1
11319,139,Larynx,Right cTBS,Tone,Clear,88,3,0,0.530690500047058,1
11320,139,Larynx,Right cTBS,Tone,Clear,89,3,0,0.5713267999817621,1
11321,139,Larynx,Right cTBS,Tone,Clear,90,3,1,0.8567619000095871,1
11322,139,Larynx,Right cTBS,Tone,Clear,91,4,1,0.554160300001968,1
11323,139,Larynx,Right cTBS,Tone,Clear,92,2,0,0.37845379998907397,1
11324,139,Larynx,Right cTBS,Tone,Clear,93,3,0,0.8234476000070571,1
11325,139,Larynx,Right cTBS,Tone,Clear,94,4,1,0.47441029996844003,1
11326,139,Larynx,Right cTBS,Tone,Clear,95,5,1,0.6490518999635239,1
11327,139,Larynx,Right cTBS,Tone,Clear,96,4,0,0.719097299966961,1
11328,139,Larynx,Right cTBS,Tone,Clear,97,5,1,0.6872306999866851,1
11329,139,Larynx,Right cTBS,Tone,Clear,98,3,0,0.593347800022457,1
11330,139,Larynx,Right cTBS,Tone,Clear,99,2,0,0.7935881000012159,1
11331,139,Larynx,Right cTBS,Tone,Clear,100,3,1,0.8293647000100459,1
11332,139,Larynx,Right cTBS,Tone,Clear,101,4,1,0.5513516000355589,1
11333,139,Larynx,Right cTBS,Tone,Clear,102,1,0,0.46879469999112205,1
11334,139,Larynx,Right cTBS,Tone,Clear,103,1,0,0.66994250001153,1
11335,139,Larynx,Right cTBS,Tone,Clear,104,2,0,0.9032089000102129,1
11336,139,Larynx,Right cTBS,Tone,Clear,105,2,0,1.12081230001058,1
11337,139,Larynx,Right cTBS,Tone,Clear,106,5,1,0.459700600011274,1
11338,139,Larynx,Right cTBS,Tone,Clear,107,4,1,0.564568499976303,1
11339,139,Larynx,Right cTBS,Tone,Clear,108,2,0,0.790217299945652,1
11340,139,Larynx,Right cTBS,Tone,Clear,109,4,1,0.631571099977009,1
11341,139,Larynx,Right cTBS,Tone,Clear,110,2,0,0.760666000016499,1
11342,139,Larynx,Right cTBS,Tone,Clear,111,3,1,0.731767099990975,1
11343,139,Larynx,Right cTBS,Tone,Clear,112,1,0,0.607703100016806,1
11344,139,Larynx,Right cTBS,Tone,Clear,113,1,0,0.7019521000329411,1
11345,139,Larynx,Right cTBS,Tone,Clear,114,3,1,0.5273727999883701,1
11346,139,Larynx,Right cTBS,Tone,Clear,115,4,1,0.677197400014848,1
11347,139,Larynx,Right cTBS,Tone,Clear,116,2,0,0.564328300009947,1
11348,139,Larynx,Right cTBS,Tone,Clear,117,5,1,0.7085701999603771,1
11349,139,Larynx,Right cTBS,Tone,Clear,118,3,0,0.892304699984379,1
11350,139,Larynx,Right cTBS,Tone,Clear,119,3,1,0.772259399993345,1
11351,139,Larynx,Right cTBS,Tone,Clear,120,2,0,0.64812399999937,1
11352,139,Larynx,Right cTBS,Tone,Clear,121,1,0,0.670388799975626,1
11353,139,Larynx,Right cTBS,Tone,Clear,122,3,1,0.570643599960022,1
11354,139,Larynx,Right cTBS,Tone,Clear,123,3,1,0.698684800008778,1
11355,139,Larynx,Right cTBS,Tone,Clear,124,2,0,0.553782099974342,1
11356,139,Larynx,Right cTBS,Tone,Clear,125,1,0,0.481575699988753,1
11357,139,Larynx,Right cTBS,Tone,Clear,126,4,1,0.46295969997299796,1
11358,139,Larynx,Right cTBS,Tone,Clear,127,4,1,0.582471999980044,1
11359,139,Larynx,Right cTBS,Tone,Clear,128,5,1,0.8495143000036479,1
11360,139,Larynx,Right cTBS,Tone,Clear,129,5,1,0.707242500036955,1
11361,139,Larynx,Right cTBS,Tone,Clear,130,5,1,0.6614387999870811,1
11362,139,Larynx,Right cTBS,Tone,Clear,131,3,0,0.521948600013275,1
11363,139,Larynx,Right cTBS,Tone,Clear,132,1,0,0.536454599990975,1
11364,139,Larynx,Right cTBS,Tone,Clear,133,1,0,0.619237500010058,1
11365,139,Larynx,Right cTBS,Tone,Clear,134,2,0,0.96381939999992,1
11366,139,Larynx,Right cTBS,Tone,Clear,135,2,0,0.864912700024433,1
11367,139,Larynx,Right cTBS,Tone,Clear,136,2,1,0.92969910003012,1
11368,139,Larynx,Right cTBS,Tone,Clear,137,5,1,0.615203399967868,1
11369,139,Larynx,Right cTBS,Tone,Clear,138,5,1,0.5900493999943139,1
11370,139,Larynx,Right cTBS,Tone,Clear,139,4,1,0.7467350999941121,1
11371,139,Larynx,Right cTBS,Tone,Clear,140,4,1,0.695359900011681,1
11372,139,Larynx,Right cTBS,Tone,Clear,141,2,0,0.5026749999960879,1
11373,139,Larynx,Right cTBS,Tone,Clear,142,2,0,0.642214499996044,1
11374,139,Larynx,Right cTBS,Tone,Clear,143,4,1,0.741991400020197,1
11375,139,Larynx,Right cTBS,Tone,Clear,144,5,1,0.659970100037754,1
11376,139,Larynx,Right cTBS,Tone,Clear,145,3,0,0.953327999974135,1
11377,139,Larynx,Right cTBS,Tone,Clear,146,3,0,0.8643226000131109,1
11378,139,Larynx,Right cTBS,Tone,Clear,147,3,0,0.75081019999925,1
11379,139,Larynx,Right cTBS,Tone,Clear,148,3,1,0.760803700017277,1
11380,139,Larynx,Right cTBS,Tone,Clear,149,3,0,0.678314000018872,1
11381,139,Larynx,Right cTBS,Tone,Clear,150,4,1,0.535080700006802,1
11382,139,Larynx,Right cTBS,Tone,Clear,151,4,1,0.6217992000165401,1
11383,139,Larynx,Right cTBS,Tone,Clear,152,4,1,0.699160300020594,1
11384,139,Larynx,Right cTBS,Tone,Clear,153,1,0,0.8089170000166629,1
11385,139,Larynx,Right cTBS,Tone,Clear,154,3,0,0.7353206999832759,1
11386,139,Larynx,Right cTBS,Tone,Clear,155,1,0,0.69889569998486,1
11387,139,Larynx,Right cTBS,Tone,Clear,156,2,0,0.680989799962845,1
11856,139,Larynx,Sham,Tone,Clear,1,4,1,0.7818881000057439,1
11857,139,Larynx,Sham,Tone,Clear,2,2,0,0.474503099998401,1
11858,139,Larynx,Sham,Tone,Clear,3,2,0,0.8289355000015349,1
11859,139,Larynx,Sham,Tone,Clear,4,3,1,0.8213532999943709,1
11860,139,Larynx,Sham,Tone,Clear,5,3,0,0.8579582000020308,1
11861,139,Larynx,Sham,Tone,Clear,6,3,1,0.8422052000023539,1
11862,139,Larynx,Sham,Tone,Clear,7,4,1,0.924107899998489,1
11863,139,Larynx,Sham,Tone,Clear,8,1,0,0.534117300005164,1
11864,139,Larynx,Sham,Tone,Clear,9,1,0,0.654547600002843,1
11865,139,Larynx,Sham,Tone,Clear,10,2,1,0.9475633999973071,1
11866,139,Larynx,Sham,Tone,Clear,11,2,1,1.16263679999975,1
11867,139,Larynx,Sham,Tone,Clear,12,4,1,0.7266509999972192,1
11868,139,Larynx,Sham,Tone,Clear,13,5,1,0.635464899998624,1
11869,139,Larynx,Sham,Tone,Clear,14,5,1,0.6407045000014481,1
11870,139,Larynx,Sham,Tone,Clear,15,3,0,1.03630870000052,1
11871,139,Larynx,Sham,Tone,Clear,16,2,0,0.640642000005755,1
11872,139,Larynx,Sham,Tone,Clear,17,4,1,0.5327541000006021,1
11873,139,Larynx,Sham,Tone,Clear,18,1,0,0.629667599998356,1
11874,139,Larynx,Sham,Tone,Clear,19,1,0,0.650240099996154,1
11875,139,Larynx,Sham,Tone,Clear,20,3,1,0.7652082999993579,1
11876,139,Larynx,Sham,Tone,Clear,21,3,1,0.976534200002789,1
11877,139,Larynx,Sham,Tone,Clear,22,2,0,0.6062581999940451,1
11878,139,Larynx,Sham,Tone,Clear,23,5,1,0.720507999998517,1
11879,139,Larynx,Sham,Tone,Clear,24,4,1,0.6542747000057719,1
11880,139,Larynx,Sham,Tone,Clear,25,5,1,0.5918234000055239,1
11881,139,Larynx,Sham,Tone,Clear,26,3,1,1.24599359999411,1
11882,139,Larynx,Sham,Tone,Clear,27,4,1,0.723858199999086,1
11883,139,Larynx,Sham,Tone,Clear,28,3,1,1.16821319999872,1
11884,139,Larynx,Sham,Tone,Clear,29,1,0,0.939424799995322,1
11885,139,Larynx,Sham,Tone,Clear,30,5,1,0.7689411999963341,1
11886,139,Larynx,Sham,Tone,Clear,31,1,0,1.1178507000004199,1
11887,139,Larynx,Sham,Tone,Clear,32,3,1,0.8216577999992299,1
11888,139,Larynx,Sham,Tone,Clear,33,5,1,0.9942571999999928,1
11889,139,Larynx,Sham,Tone,Clear,34,3,1,0.7156738000048791,1
11890,139,Larynx,Sham,Tone,Clear,35,3,1,0.782960900003673,1
11891,139,Larynx,Sham,Tone,Clear,36,2,0,0.6268137000006391,1
11892,139,Larynx,Sham,Tone,Clear,37,4,1,0.7273927999995071,1
11893,139,Larynx,Sham,Tone,Clear,38,2,0,0.8453384999957049,1
11894,139,Larynx,Sham,Tone,Clear,39,4,1,0.7477916999996519,1
11895,139,Larynx,Sham,Tone,Clear,40,2,0,0.6292791000014399,1
11896,139,Larynx,Sham,Tone,Clear,41,3,1,0.944041800001287,1
11897,139,Larynx,Sham,Tone,Clear,42,5,1,0.5913465999983599,1
11898,139,Larynx,Sham,Tone,Clear,43,4,1,0.7035443999993729,1
11899,139,Larynx,Sham,Tone,Clear,44,1,0,0.514717199999723,1
11900,139,Larynx,Sham,Tone,Clear,45,2,0,0.740770999997039,1
11901,139,Larynx,Sham,Tone,Clear,46,5,1,0.509855600001174,1
11902,139,Larynx,Sham,Tone,Clear,47,1,0,0.704761799999687,1
11903,139,Larynx,Sham,Tone,Clear,48,3,1,0.7613093000036321,1
11904,139,Larynx,Sham,Tone,Clear,49,1,0,0.6823277000003151,1
11905,139,Larynx,Sham,Tone,Clear,50,3,1,0.689872599999944,1
11906,139,Larynx,Sham,Tone,Clear,51,1,0,0.7639194000003041,1
11907,139,Larynx,Sham,Tone,Clear,52,4,1,0.535447399997793,1
11908,139,Larynx,Sham,Tone,Clear,53,5,1,0.6592779000056911,1
11909,139,Larynx,Sham,Tone,Clear,54,4,1,0.6194306999968829,1
11910,139,Larynx,Sham,Tone,Clear,55,4,1,0.593677500000922,1
11911,139,Larynx,Sham,Tone,Clear,56,5,1,0.6616082999971701,1
11912,139,Larynx,Sham,Tone,Clear,57,2,0,0.6824909000060869,1
11913,139,Larynx,Sham,Tone,Clear,58,2,0,0.9078526000012059,1
11914,139,Larynx,Sham,Tone,Clear,59,5,1,0.49659190000238596,1
11915,139,Larynx,Sham,Tone,Clear,60,3,0,0.935720100002072,1
11916,139,Larynx,Sham,Tone,Clear,61,3,0,1.2564859999984,1
11917,139,Larynx,Sham,Tone,Clear,62,4,1,0.679918300003919,1
11918,139,Larynx,Sham,Tone,Clear,63,2,0,0.966023499997391,1
11919,139,Larynx,Sham,Tone,Clear,64,2,0,0.7535679000066009,1
11920,139,Larynx,Sham,Tone,Clear,65,1,0,0.647378699999535,1
11921,139,Larynx,Sham,Tone,Clear,66,4,1,0.7148979000048711,1
11922,139,Larynx,Sham,Tone,Clear,67,3,1,0.944946000003256,1
11923,139,Larynx,Sham,Tone,Clear,68,3,0,0.8909580000035929,1
11924,139,Larynx,Sham,Tone,Clear,69,3,1,0.921047300005739,1
11925,139,Larynx,Sham,Tone,Clear,70,4,1,0.806048300000839,1
11926,139,Larynx,Sham,Tone,Clear,71,5,1,0.705060699998285,1
11927,139,Larynx,Sham,Tone,Clear,72,2,0,0.6801640000048791,1
11928,139,Larynx,Sham,Tone,Clear,73,2,0,0.753046300000278,1
11929,139,Larynx,Sham,Tone,Clear,74,3,1,1.1144152999986499,1
11930,139,Larynx,Sham,Tone,Clear,75,3,1,1.1567321000038602,1
11931,139,Larynx,Sham,Tone,Clear,76,3,0,1.2700989000004501,1
11932,139,Larynx,Sham,Tone,Clear,77,1,0,0.768865500001994,1
11933,139,Larynx,Sham,Tone,Clear,78,4,1,0.626293299996178,1
11934,139,Larynx,Sham,Tone,Clear,79,2,0,0.734229999994568,1
11935,139,Larynx,Sham,Tone,Clear,80,4,1,0.608526700001676,1
11936,139,Larynx,Sham,Tone,Clear,81,2,0,0.75957699999708,1
11937,139,Larynx,Sham,Tone,Clear,82,3,1,0.6424994000044529,1
11938,139,Larynx,Sham,Tone,Clear,83,2,0,0.617680700001074,1
11939,139,Larynx,Sham,Tone,Clear,84,5,1,0.636349499996868,1
11940,139,Larynx,Sham,Tone,Clear,85,3,1,0.940243900004134,1
11941,139,Larynx,Sham,Tone,Clear,86,5,1,0.773711999994703,1
11942,139,Larynx,Sham,Tone,Clear,87,4,1,0.7522823000035709,1
11943,139,Larynx,Sham,Tone,Clear,88,4,1,0.755126299998665,1
11944,139,Larynx,Sham,Tone,Clear,89,1,0,0.506969000001845,1
11945,139,Larynx,Sham,Tone,Clear,90,3,1,0.839482800001861,1
11946,139,Larynx,Sham,Tone,Clear,91,5,1,0.6266680000044289,1
11947,139,Larynx,Sham,Tone,Clear,92,4,1,0.6780990999977801,1
11948,139,Larynx,Sham,Tone,Clear,93,2,0,0.52025390000199,1
11949,139,Larynx,Sham,Tone,Clear,94,3,1,0.7404550999999631,1
11950,139,Larynx,Sham,Tone,Clear,95,2,0,0.6626823999977199,1
11951,139,Larynx,Sham,Tone,Clear,96,5,1,0.675790999994206,1
11952,139,Larynx,Sham,Tone,Clear,97,3,1,0.9689770000040879,1
11953,139,Larynx,Sham,Tone,Clear,98,3,0,1.2611064000011498,1
11954,139,Larynx,Sham,Tone,Clear,99,2,0,0.652551500003028,1
11955,139,Larynx,Sham,Tone,Clear,100,1,0,0.8188312999991469,1
11956,139,Larynx,Sham,Tone,Clear,101,4,1,0.6463943999988261,1
11957,139,Larynx,Sham,Tone,Clear,102,1,0,1.28056469999865,1
11958,139,Larynx,Sham,Tone,Clear,103,3,0,1.1047488999975,1
11959,139,Larynx,Sham,Tone,Clear,104,4,1,0.834365599999728,1
11960,139,Larynx,Sham,Tone,Clear,105,4,1,0.7303549999996899,1
11961,139,Larynx,Sham,Tone,Clear,106,1,0,0.45527949999814205,1
11962,139,Larynx,Sham,Tone,Clear,107,2,0,0.662805499996466,1
11963,139,Larynx,Sham,Tone,Clear,108,3,1,0.8781639000008,1
11964,139,Larynx,Sham,Tone,Clear,109,5,1,0.8462883999964109,1
11965,139,Larynx,Sham,Tone,Clear,110,4,1,0.803627699999197,1
11966,139,Larynx,Sham,Tone,Clear,111,5,1,0.7521474000022859,1
11967,139,Larynx,Sham,Tone,Clear,112,3,0,0.774296099996718,1
11968,139,Larynx,Sham,Tone,Clear,113,2,0,0.6338414000056221,1
11969,139,Larynx,Sham,Tone,Clear,114,3,1,0.8481987000050141,1
11970,139,Larynx,Sham,Tone,Clear,115,3,1,0.7427033999993001,1
11971,139,Larynx,Sham,Tone,Clear,116,1,0,0.587384600003134,1
11972,139,Larynx,Sham,Tone,Clear,117,1,0,0.7078622000044559,1
11973,139,Larynx,Sham,Tone,Clear,118,5,1,0.6275120999998759,1
11974,139,Larynx,Sham,Tone,Clear,119,4,1,0.520007999999507,1
11975,139,Larynx,Sham,Tone,Clear,120,3,1,1.0395989000026,1
11976,139,Larynx,Sham,Tone,Clear,121,4,1,0.799060799996369,1
11977,139,Larynx,Sham,Tone,Clear,122,3,0,0.9335671000008009,1
11978,139,Larynx,Sham,Tone,Clear,123,4,1,0.812313199996424,1
11979,139,Larynx,Sham,Tone,Clear,124,2,0,0.604376299997966,1
11980,139,Larynx,Sham,Tone,Clear,125,5,1,0.640508700002101,1
11981,139,Larynx,Sham,Tone,Clear,126,1,0,0.8759916999988492,1
11982,139,Larynx,Sham,Tone,Clear,127,2,0,0.635131700000784,1
11983,139,Larynx,Sham,Tone,Clear,128,3,1,0.8369953000001259,1
11984,139,Larynx,Sham,Tone,Clear,129,3,0,0.927637199994933,1
11985,139,Larynx,Sham,Tone,Clear,130,4,1,0.9477592999974151,1
11986,139,Larynx,Sham,Tone,Clear,131,3,0,1.04990270000417,1
11987,139,Larynx,Sham,Tone,Clear,132,2,0,0.83275020000292,1
11988,139,Larynx,Sham,Tone,Clear,133,4,1,0.6768851000015269,1
11989,139,Larynx,Sham,Tone,Clear,134,3,1,0.84143259999837,1
11990,139,Larynx,Sham,Tone,Clear,135,5,1,0.6606649000023029,1
11991,139,Larynx,Sham,Tone,Clear,136,3,0,0.786249099997804,1
11992,139,Larynx,Sham,Tone,Clear,137,2,0,0.712410899999668,1
11993,139,Larynx,Sham,Tone,Clear,138,3,1,0.6879818999950661,1
11994,139,Larynx,Sham,Tone,Clear,139,1,0,0.697483799995098,1
11995,139,Larynx,Sham,Tone,Clear,140,2,0,0.6991788999948771,1
11996,139,Larynx,Sham,Tone,Clear,141,1,0,0.8692941000044809,1
11997,139,Larynx,Sham,Tone,Clear,142,5,1,0.544607299998461,1
11998,139,Larynx,Sham,Tone,Clear,143,1,0,0.799251799995545,1
11999,139,Larynx,Sham,Tone,Clear,144,4,1,0.768605899997056,1
12000,139,Larynx,Sham,Tone,Clear,145,1,0,0.621584099993925,1
12001,139,Larynx,Sham,Tone,Clear,146,4,1,0.761611499998253,1
12002,139,Larynx,Sham,Tone,Clear,147,3,1,0.943563599998015,1
12003,139,Larynx,Sham,Tone,Clear,148,2,0,0.5724847000019511,1
12004,139,Larynx,Sham,Tone,Clear,149,2,0,0.681649499994819,1
12005,139,Larynx,Sham,Tone,Clear,150,5,1,0.588431500000297,1
12006,139,Larynx,Sham,Tone,Clear,151,3,1,1.22443850000127,1
12007,139,Larynx,Sham,Tone,Clear,152,4,1,0.625571700002183,1
12008,139,Larynx,Sham,Tone,Clear,153,5,1,0.8194507000007429,1
12009,139,Larynx,Sham,Tone,Clear,154,1,0,0.6437414000029089,1
12010,139,Larynx,Sham,Tone,Clear,155,2,0,0.76219790000323,1
12011,139,Larynx,Sham,Tone,Clear,156,3,1,0.8359131999968671,1
14352,142,Larynx,Right cTBS,Tone,Clear,1,1,0,0.736232600000221,1
14353,142,Larynx,Right cTBS,Tone,Clear,2,3,0,0.503988200041931,1
14354,142,Larynx,Right cTBS,Tone,Clear,3,3,1,0.688353100034874,1
14355,142,Larynx,Right cTBS,Tone,Clear,4,1,0,0.592980599962175,1
14356,142,Larynx,Right cTBS,Tone,Clear,5,3,1,0.474719499994535,1
14357,142,Larynx,Right cTBS,Tone,Clear,6,2,1,0.47104880004189903,1
14358,142,Larynx,Right cTBS,Tone,Clear,7,5,1,0.40045429999008797,1
14359,142,Larynx,Right cTBS,Tone,Clear,8,3,1,0.412797500030138,1
14360,142,Larynx,Right cTBS,Tone,Clear,9,2,0,0.43387460004305495,1
14361,142,Larynx,Right cTBS,Tone,Clear,10,1,0,0.551798100001179,1
14362,142,Larynx,Right cTBS,Tone,Clear,11,4,1,0.560833800002001,1
14363,142,Larynx,Right cTBS,Tone,Clear,12,5,1,0.549702499993145,1
14364,142,Larynx,Right cTBS,Tone,Clear,13,4,1,0.48388080002041495,1
14365,142,Larynx,Right cTBS,Tone,Clear,14,3,0,0.6466782999923449,1
14366,142,Larynx,Right cTBS,Tone,Clear,15,2,0,0.48131480003939897,1
14367,142,Larynx,Right cTBS,Tone,Clear,16,5,1,0.452186400012579,1
14368,142,Larynx,Right cTBS,Tone,Clear,17,4,1,0.5497928999830041,1
14369,142,Larynx,Right cTBS,Tone,Clear,18,2,0,0.49117059999844104,1
14370,142,Larynx,Right cTBS,Tone,Clear,19,3,0,0.949214299966116,1
14371,142,Larynx,Right cTBS,Tone,Clear,20,2,0,0.5562721000169399,1
14372,142,Larynx,Right cTBS,Tone,Clear,21,1,0,0.495054800005164,1
14373,142,Larynx,Right cTBS,Tone,Clear,22,2,0,0.6276394999586049,1
14374,142,Larynx,Right cTBS,Tone,Clear,23,4,1,0.5612545000039971,1
14375,142,Larynx,Right cTBS,Tone,Clear,24,1,0,0.532220900000539,1
14376,142,Larynx,Right cTBS,Tone,Clear,25,4,1,0.415952100011054,1
14377,142,Larynx,Right cTBS,Tone,Clear,26,4,1,0.578845000010915,1
14378,142,Larynx,Right cTBS,Tone,Clear,27,2,0,0.635900399996899,1
14379,142,Larynx,Right cTBS,Tone,Clear,28,3,1,0.43307389999972706,1
14380,142,Larynx,Right cTBS,Tone,Clear,29,5,1,0.41045490000396995,1
14381,142,Larynx,Right cTBS,Tone,Clear,30,2,0,0.555956199998036,1
14382,142,Larynx,Right cTBS,Tone,Clear,31,5,1,0.538953199982643,1
14383,142,Larynx,Right cTBS,Tone,Clear,32,3,1,0.9974071999895391,1
14384,142,Larynx,Right cTBS,Tone,Clear,33,5,1,0.699481399962679,1
14385,142,Larynx,Right cTBS,Tone,Clear,34,3,0,0.48316130001330704,1
14386,142,Larynx,Right cTBS,Tone,Clear,35,4,1,0.810998100030702,1
14387,142,Larynx,Right cTBS,Tone,Clear,36,4,1,0.550179600017145,1
14388,142,Larynx,Right cTBS,Tone,Clear,37,3,1,0.5865237999823879,1
14389,142,Larynx,Right cTBS,Tone,Clear,38,1,0,0.459178299992345,1
14390,142,Larynx,Right cTBS,Tone,Clear,39,3,1,0.845480600022711,1
14391,142,Larynx,Right cTBS,Tone,Clear,40,2,0,0.718582200002857,1
14392,142,Larynx,Right cTBS,Tone,Clear,41,3,1,0.6422686000005339,1
14393,142,Larynx,Right cTBS,Tone,Clear,42,1,0,0.5761234000092371,1
14394,142,Larynx,Right cTBS,Tone,Clear,43,5,1,0.545460699999239,1
14395,142,Larynx,Right cTBS,Tone,Clear,44,5,1,0.5423424000036899,1
14396,142,Larynx,Right cTBS,Tone,Clear,45,2,0,0.614173299982212,1
14397,142,Larynx,Right cTBS,Tone,Clear,46,2,0,0.6972910999902521,1
14398,142,Larynx,Right cTBS,Tone,Clear,47,4,1,0.381133899965789,1
14399,142,Larynx,Right cTBS,Tone,Clear,48,4,1,0.48450680001406,1
14400,142,Larynx,Right cTBS,Tone,Clear,49,2,0,0.643611399980728,1
14401,142,Larynx,Right cTBS,Tone,Clear,50,2,0,0.651735799969174,1
14402,142,Larynx,Right cTBS,Tone,Clear,51,4,1,0.5248789000324899,1
14403,142,Larynx,Right cTBS,Tone,Clear,52,3,0,0.684334599995054,1
14404,142,Larynx,Right cTBS,Tone,Clear,53,1,1,0.46707960002822796,1
14405,142,Larynx,Right cTBS,Tone,Clear,54,2,0,0.731537999992725,1
14406,142,Larynx,Right cTBS,Tone,Clear,55,3,0,0.901047099963762,1
14407,142,Larynx,Right cTBS,Tone,Clear,56,3,1,0.642040700011421,1
14408,142,Larynx,Right cTBS,Tone,Clear,57,4,1,0.626737700018566,1
14409,142,Larynx,Right cTBS,Tone,Clear,58,3,1,0.5275981000158939,1
14410,142,Larynx,Right cTBS,Tone,Clear,59,4,1,0.594136699975934,1
14411,142,Larynx,Right cTBS,Tone,Clear,60,2,0,0.5866206000209789,1
14412,142,Larynx,Right cTBS,Tone,Clear,61,1,0,0.870468699955381,1
14413,142,Larynx,Right cTBS,Tone,Clear,62,3,0,0.91598150000209,1
14414,142,Larynx,Right cTBS,Tone,Clear,63,3,1,0.664325100020505,1
14415,142,Larynx,Right cTBS,Tone,Clear,64,5,1,0.6061399000464011,1
14416,142,Larynx,Right cTBS,Tone,Clear,65,5,1,0.645903099968564,1
14417,142,Larynx,Right cTBS,Tone,Clear,66,5,1,0.5039168999646789,1
14418,142,Larynx,Right cTBS,Tone,Clear,67,1,0,0.654028599965386,1
14419,142,Larynx,Right cTBS,Tone,Clear,68,4,1,0.6243886999436651,1
14420,142,Larynx,Right cTBS,Tone,Clear,69,3,1,0.7404727999819442,1
14421,142,Larynx,Right cTBS,Tone,Clear,70,1,0,0.680222099996172,1
14422,142,Larynx,Right cTBS,Tone,Clear,71,3,1,0.8556147000053901,1
14423,142,Larynx,Right cTBS,Tone,Clear,72,1,0,0.6162277000257751,1
14424,142,Larynx,Right cTBS,Tone,Clear,73,2,0,0.598833199997898,1
14425,142,Larynx,Right cTBS,Tone,Clear,74,4,1,0.507807200017851,1
14426,142,Larynx,Right cTBS,Tone,Clear,75,5,1,0.5062434999854301,1
14427,142,Larynx,Right cTBS,Tone,Clear,76,3,1,0.516094600025099,1
14428,142,Larynx,Right cTBS,Tone,Clear,77,3,0,0.818087499996182,1
14429,142,Larynx,Right cTBS,Tone,Clear,78,4,1,0.578884599963203,1
14430,142,Larynx,Right cTBS,Tone,Clear,79,2,0,0.595092199975625,1
14431,142,Larynx,Right cTBS,Tone,Clear,80,2,0,0.5538742999779059,1
14432,142,Larynx,Right cTBS,Tone,Clear,81,5,1,0.458316199947149,1
14433,142,Larynx,Right cTBS,Tone,Clear,82,5,1,0.5048769999993971,1
14434,142,Larynx,Right cTBS,Tone,Clear,83,5,1,0.5047143000410871,1
14435,142,Larynx,Right cTBS,Tone,Clear,84,3,0,0.588354200008325,1
14436,142,Larynx,Right cTBS,Tone,Clear,85,1,0,0.5179993000347171,1
14437,142,Larynx,Right cTBS,Tone,Clear,86,5,1,0.43881369999144204,1
14438,142,Larynx,Right cTBS,Tone,Clear,87,3,1,0.47168809996219396,1
14439,142,Larynx,Right cTBS,Tone,Clear,88,3,0,0.6571504999883471,1
14440,142,Larynx,Right cTBS,Tone,Clear,89,4,0,0.3909408000181429,1
14441,142,Larynx,Right cTBS,Tone,Clear,90,4,1,0.72251219995087,1
14442,142,Larynx,Right cTBS,Tone,Clear,91,4,1,0.5745642000110821,1
14443,142,Larynx,Right cTBS,Tone,Clear,92,2,1,0.429268200008664,1
14444,142,Larynx,Right cTBS,Tone,Clear,93,4,1,0.728563999990001,1
14445,142,Larynx,Right cTBS,Tone,Clear,94,1,0,0.6684789999853821,1
14446,142,Larynx,Right cTBS,Tone,Clear,95,1,0,0.527550400001928,1
14447,142,Larynx,Right cTBS,Tone,Clear,96,1,0,0.519527800031938,1
14448,142,Larynx,Right cTBS,Tone,Clear,97,4,1,0.5130725000053641,1
14449,142,Larynx,Right cTBS,Tone,Clear,98,4,1,0.395935699983966,1
14450,142,Larynx,Right cTBS,Tone,Clear,99,3,0,0.6792258000350561,1
14451,142,Larynx,Right cTBS,Tone,Clear,100,3,0,0.6155938000301829,1
14452,142,Larynx,Right cTBS,Tone,Clear,101,3,0,0.6908604000345799,1
14453,142,Larynx,Right cTBS,Tone,Clear,102,3,1,0.495197099982761,1
14454,142,Larynx,Right cTBS,Tone,Clear,103,1,0,0.6411491999751889,1
14455,142,Larynx,Right cTBS,Tone,Clear,104,3,1,0.531080799992196,1
14456,142,Larynx,Right cTBS,Tone,Clear,105,4,1,0.563921099994332,1
14457,142,Larynx,Right cTBS,Tone,Clear,106,2,0,0.6438934000325389,1
14458,142,Larynx,Right cTBS,Tone,Clear,107,2,0,0.5430402999627401,1
14459,142,Larynx,Right cTBS,Tone,Clear,108,4,1,0.6234132000245151,1
14460,142,Larynx,Right cTBS,Tone,Clear,109,2,0,0.6095130000030621,1
14461,142,Larynx,Right cTBS,Tone,Clear,110,2,0,0.5818553999997679,1
14462,142,Larynx,Right cTBS,Tone,Clear,111,3,0,0.57281260000309,1
14463,142,Larynx,Right cTBS,Tone,Clear,112,3,1,0.501859699958004,1
14464,142,Larynx,Right cTBS,Tone,Clear,113,3,1,0.8472962999949231,1
14465,142,Larynx,Right cTBS,Tone,Clear,114,5,1,0.6197364000254311,1
14466,142,Larynx,Right cTBS,Tone,Clear,115,2,0,0.613881299970672,1
14467,142,Larynx,Right cTBS,Tone,Clear,116,5,1,0.522902800003067,1
14468,142,Larynx,Right cTBS,Tone,Clear,117,1,0,0.645737899991218,1
14469,142,Larynx,Right cTBS,Tone,Clear,118,5,1,0.464541899971664,1
14470,142,Larynx,Right cTBS,Tone,Clear,119,4,1,0.719475899997633,1
14471,142,Larynx,Right cTBS,Tone,Clear,120,2,0,0.641481300001033,1
14472,142,Larynx,Right cTBS,Tone,Clear,121,2,0,0.730267099977937,1
14473,142,Larynx,Right cTBS,Tone,Clear,122,4,1,0.522092700004578,1
14474,142,Larynx,Right cTBS,Tone,Clear,123,1,0,0.66201839997666,1
14475,142,Larynx,Right cTBS,Tone,Clear,124,3,0,0.886548900045455,1
14476,142,Larynx,Right cTBS,Tone,Clear,125,5,1,0.644623300002422,1
14477,142,Larynx,Right cTBS,Tone,Clear,126,3,0,0.65774610004155,1
14478,142,Larynx,Right cTBS,Tone,Clear,127,4,1,0.493653399986215,1
14479,142,Larynx,Right cTBS,Tone,Clear,128,4,1,0.585965900041629,1
14480,142,Larynx,Right cTBS,Tone,Clear,129,3,1,0.6519598999875601,1
14481,142,Larynx,Right cTBS,Tone,Clear,130,4,1,0.7255509999813509,1
14482,142,Larynx,Right cTBS,Tone,Clear,131,3,1,0.790230499987956,1
14483,142,Larynx,Right cTBS,Tone,Clear,132,3,1,0.5935478000319561,1
14484,142,Larynx,Right cTBS,Tone,Clear,133,3,1,0.8433211999945341,1
14485,142,Larynx,Right cTBS,Tone,Clear,134,2,0,0.515841600019485,1
14486,142,Larynx,Right cTBS,Tone,Clear,135,1,0,0.5793599999742579,1
14487,142,Larynx,Right cTBS,Tone,Clear,136,5,1,0.555083299987018,1
14488,142,Larynx,Right cTBS,Tone,Clear,137,5,1,0.532099700008985,1
14489,142,Larynx,Right cTBS,Tone,Clear,138,1,0,0.616717299970333,1
14490,142,Larynx,Right cTBS,Tone,Clear,139,2,0,0.5797504999791271,1
14491,142,Larynx,Right cTBS,Tone,Clear,140,4,1,0.471756900020409,1
14492,142,Larynx,Right cTBS,Tone,Clear,141,3,1,0.348953100037761,1
14493,142,Larynx,Right cTBS,Tone,Clear,142,2,0,0.614461200020742,1
14494,142,Larynx,Right cTBS,Tone,Clear,143,1,0,0.596989599987864,1
14495,142,Larynx,Right cTBS,Tone,Clear,144,1,0,0.514966899994761,1
14496,142,Larynx,Right cTBS,Tone,Clear,145,1,0,0.503429200034589,1
14497,142,Larynx,Right cTBS,Tone,Clear,146,2,0,0.6485507999896071,1
14498,142,Larynx,Right cTBS,Tone,Clear,147,5,1,0.6567247999482789,1
14499,142,Larynx,Right cTBS,Tone,Clear,148,4,1,0.511349299980793,1
14500,142,Larynx,Right cTBS,Tone,Clear,149,4,1,0.559502499992959,1
14501,142,Larynx,Right cTBS,Tone,Clear,150,5,1,0.6478217000258161,1
14502,142,Larynx,Right cTBS,Tone,Clear,151,3,1,0.828623800014611,1
14503,142,Larynx,Right cTBS,Tone,Clear,152,3,1,0.7993633000296541,1
14504,142,Larynx,Right cTBS,Tone,Clear,153,2,1,0.7262158000376079,1
14505,142,Larynx,Right cTBS,Tone,Clear,154,3,1,0.703319699969143,1
14506,142,Larynx,Right cTBS,Tone,Clear,155,2,0,0.45053349999943704,1
14507,142,Larynx,Right cTBS,Tone,Clear,156,3,1,0.616732599970419,1
14976,142,Larynx,Sham,Tone,Clear,1,3,1,0.8087832999990501,1
14977,142,Larynx,Sham,Tone,Clear,2,4,1,0.651761999997689,1
14978,142,Larynx,Sham,Tone,Clear,3,2,0,0.511792999997851,1
14979,142,Larynx,Sham,Tone,Clear,4,5,1,0.6303017000027471,1
14980,142,Larynx,Sham,Tone,Clear,5,2,0,0.48858699999982497,1
14981,142,Larynx,Sham,Tone,Clear,6,3,1,0.8353018999987399,1
14982,142,Larynx,Sham,Tone,Clear,7,2,0,0.48307209999984496,1
14983,142,Larynx,Sham,Tone,Clear,8,5,1,0.657168600002478,1
14984,142,Larynx,Sham,Tone,Clear,9,1,0,0.46935229999871797,1
14985,142,Larynx,Sham,Tone,Clear,10,3,1,0.652590400000918,1
14986,142,Larynx,Sham,Tone,Clear,11,4,1,0.6769163000026309,1
14987,142,Larynx,Sham,Tone,Clear,12,3,1,0.675862899999629,1
14988,142,Larynx,Sham,Tone,Clear,13,5,1,0.619618400000036,1
14989,142,Larynx,Sham,Tone,Clear,14,4,1,0.516843900000822,1
14990,142,Larynx,Sham,Tone,Clear,15,4,1,0.5366593999970061,1
14991,142,Larynx,Sham,Tone,Clear,16,2,0,0.57842630000232,1
14992,142,Larynx,Sham,Tone,Clear,17,4,1,0.550445099997887,1
14993,142,Larynx,Sham,Tone,Clear,18,3,1,0.5708909999993921,1
14994,142,Larynx,Sham,Tone,Clear,19,1,0,0.620979600000283,1
14995,142,Larynx,Sham,Tone,Clear,20,2,0,0.540837399999873,1
14996,142,Larynx,Sham,Tone,Clear,21,3,1,0.8080004000003101,1
14997,142,Larynx,Sham,Tone,Clear,22,5,1,0.542599599997629,1
14998,142,Larynx,Sham,Tone,Clear,23,4,1,0.552406400001928,1
14999,142,Larynx,Sham,Tone,Clear,24,1,0,0.552370000001247,1
15000,142,Larynx,Sham,Tone,Clear,25,5,1,0.5598554999996851,1
15001,142,Larynx,Sham,Tone,Clear,26,2,1,0.622430300001724,1
15002,142,Larynx,Sham,Tone,Clear,27,3,0,0.813523699998768,1
15003,142,Larynx,Sham,Tone,Clear,28,1,0,0.5948156999984351,1
15004,142,Larynx,Sham,Tone,Clear,29,4,1,0.44679610000093795,1
15005,142,Larynx,Sham,Tone,Clear,30,1,0,0.499539600001299,1
15006,142,Larynx,Sham,Tone,Clear,31,1,0,0.6333526999987951,1
15007,142,Larynx,Sham,Tone,Clear,32,3,1,0.4532198999986579,1
15008,142,Larynx,Sham,Tone,Clear,33,5,1,0.6722283000017341,1
15009,142,Larynx,Sham,Tone,Clear,34,2,0,0.67599639999753,1
15010,142,Larynx,Sham,Tone,Clear,35,4,1,0.749935600000754,1
15011,142,Larynx,Sham,Tone,Clear,36,2,0,0.568952100002207,1
15012,142,Larynx,Sham,Tone,Clear,37,3,0,0.9022146999996041,1
15013,142,Larynx,Sham,Tone,Clear,38,3,0,0.704153100003168,1
15014,142,Larynx,Sham,Tone,Clear,39,3,1,0.583991300001799,1
15015,142,Larynx,Sham,Tone,Clear,40,2,0,0.531860700000834,1
15016,142,Larynx,Sham,Tone,Clear,41,4,1,0.557287300001917,1
15017,142,Larynx,Sham,Tone,Clear,42,4,1,0.559631500000251,1
15018,142,Larynx,Sham,Tone,Clear,43,2,0,0.61000520000016,1
15019,142,Larynx,Sham,Tone,Clear,44,3,0,0.707400100000086,1
15020,142,Larynx,Sham,Tone,Clear,45,3,0,0.7043478000014151,1
15021,142,Larynx,Sham,Tone,Clear,46,1,0,0.814026199997897,1
15022,142,Larynx,Sham,Tone,Clear,47,4,1,0.665942499999801,1
15023,142,Larynx,Sham,Tone,Clear,48,3,1,0.861360400002013,1
15024,142,Larynx,Sham,Tone,Clear,49,2,0,1.0537690999990401,1
15025,142,Larynx,Sham,Tone,Clear,50,5,1,0.693134100001771,1
15026,142,Larynx,Sham,Tone,Clear,51,1,0,0.5647647000005239,1
15027,142,Larynx,Sham,Tone,Clear,52,5,1,0.767477499997767,1
15028,142,Larynx,Sham,Tone,Clear,53,4,1,0.85844139999972,1
15029,142,Larynx,Sham,Tone,Clear,54,3,0,0.620215499999176,1
15030,142,Larynx,Sham,Tone,Clear,55,1,0,0.608660900001269,1
15031,142,Larynx,Sham,Tone,Clear,56,5,1,0.6121327000000749,1
15032,142,Larynx,Sham,Tone,Clear,57,3,1,0.9635854000007379,1
15033,142,Larynx,Sham,Tone,Clear,58,4,1,0.5908930000005059,1
15034,142,Larynx,Sham,Tone,Clear,59,3,1,0.8547513000012259,1
15035,142,Larynx,Sham,Tone,Clear,60,2,0,0.666601799999626,1
15036,142,Larynx,Sham,Tone,Clear,61,3,1,0.7132375000001051,1
15037,142,Larynx,Sham,Tone,Clear,62,3,1,0.693375200000446,1
15038,142,Larynx,Sham,Tone,Clear,63,2,0,0.652589599998464,1
15039,142,Larynx,Sham,Tone,Clear,64,5,1,0.505249600002571,1
15040,142,Larynx,Sham,Tone,Clear,65,5,1,0.668856699998287,1
15041,142,Larynx,Sham,Tone,Clear,66,1,0,1.01711639999849,1
15042,142,Larynx,Sham,Tone,Clear,67,3,0,0.62037920000148,1
15043,142,Larynx,Sham,Tone,Clear,68,4,1,0.47998469999947707,1
15044,142,Larynx,Sham,Tone,Clear,69,2,0,0.7690017999993871,1
15045,142,Larynx,Sham,Tone,Clear,70,3,1,0.872353399998246,1
15046,142,Larynx,Sham,Tone,Clear,71,3,1,0.639430200000788,1
15047,142,Larynx,Sham,Tone,Clear,72,2,0,0.666951900002459,1
15048,142,Larynx,Sham,Tone,Clear,73,1,0,0.571693899997626,1
15049,142,Larynx,Sham,Tone,Clear,74,4,1,0.45514589999947896,1
15050,142,Larynx,Sham,Tone,Clear,75,5,1,0.5243818999988429,1
15051,142,Larynx,Sham,Tone,Clear,76,1,0,0.51521860000139,1
15052,142,Larynx,Sham,Tone,Clear,77,2,0,0.623258699997677,1
15053,142,Larynx,Sham,Tone,Clear,78,4,1,0.473383700002159,1
15054,142,Larynx,Sham,Tone,Clear,79,3,0,0.679572400000325,1
15055,142,Larynx,Sham,Tone,Clear,80,4,1,0.532841300002474,1
15056,142,Larynx,Sham,Tone,Clear,81,2,0,0.6036792000013521,1
15057,142,Larynx,Sham,Tone,Clear,82,1,0,0.688067700000829,1
15058,142,Larynx,Sham,Tone,Clear,83,1,0,0.6157725000011851,1
15059,142,Larynx,Sham,Tone,Clear,84,3,1,0.458898699998826,1
15060,142,Larynx,Sham,Tone,Clear,85,3,1,0.61453430000256,1
15061,142,Larynx,Sham,Tone,Clear,86,5,1,0.657674699999916,1
15062,142,Larynx,Sham,Tone,Clear,87,5,1,0.581027000000176,1
15063,142,Larynx,Sham,Tone,Clear,88,3,1,0.7146152999994231,1
15064,142,Larynx,Sham,Tone,Clear,89,3,1,0.72960779999994,1
15065,142,Larynx,Sham,Tone,Clear,90,3,1,0.7356418999988821,1
15066,142,Larynx,Sham,Tone,Clear,91,4,1,0.580538899997919,1
15067,142,Larynx,Sham,Tone,Clear,92,2,0,0.546563300002163,1
15068,142,Larynx,Sham,Tone,Clear,93,3,0,0.54187119999915,1
15069,142,Larynx,Sham,Tone,Clear,94,4,1,0.707200199998624,1
15070,142,Larynx,Sham,Tone,Clear,95,5,1,0.5851617999978771,1
15071,142,Larynx,Sham,Tone,Clear,96,4,1,0.564779799999087,1
15072,142,Larynx,Sham,Tone,Clear,97,5,1,0.567665200000192,1
15073,142,Larynx,Sham,Tone,Clear,98,3,1,0.812413699997705,1
15074,142,Larynx,Sham,Tone,Clear,99,2,1,0.528701699997328,1
15075,142,Larynx,Sham,Tone,Clear,100,3,1,0.8228591000006421,1
15076,142,Larynx,Sham,Tone,Clear,101,4,1,0.7377899000020991,1
15077,142,Larynx,Sham,Tone,Clear,102,1,0,0.466491200000746,1
15078,142,Larynx,Sham,Tone,Clear,103,1,0,0.533158400001412,1
15079,142,Larynx,Sham,Tone,Clear,104,2,1,0.644257799998741,1
15080,142,Larynx,Sham,Tone,Clear,105,2,0,0.71463379999841,1
15081,142,Larynx,Sham,Tone,Clear,106,5,1,0.578486999998859,1
15082,142,Larynx,Sham,Tone,Clear,107,4,1,0.518386700001429,1
15083,142,Larynx,Sham,Tone,Clear,108,2,0,0.6228504999999129,1
15084,142,Larynx,Sham,Tone,Clear,109,4,1,0.455499100000452,1
15085,142,Larynx,Sham,Tone,Clear,110,2,0,0.995764399998734,1
15086,142,Larynx,Sham,Tone,Clear,111,3,0,0.507828000001609,1
15087,142,Larynx,Sham,Tone,Clear,112,1,0,0.59986729999946,1
15088,142,Larynx,Sham,Tone,Clear,113,1,0,0.5471672999992729,1
15089,142,Larynx,Sham,Tone,Clear,114,3,1,0.6812492999997629,1
15090,142,Larynx,Sham,Tone,Clear,115,4,1,0.47473100000206603,1
15091,142,Larynx,Sham,Tone,Clear,116,2,0,0.6224579000008821,1
15092,142,Larynx,Sham,Tone,Clear,117,5,1,0.519211999999243,1
15093,142,Larynx,Sham,Tone,Clear,118,3,1,0.881771300002583,1
15094,142,Larynx,Sham,Tone,Clear,119,3,1,0.9627128000029191,1
15095,142,Larynx,Sham,Tone,Clear,120,2,0,0.48242329999993705,1
15096,142,Larynx,Sham,Tone,Clear,121,1,0,0.5088407999974149,1
15097,142,Larynx,Sham,Tone,Clear,122,3,1,0.608102900001541,1
15098,142,Larynx,Sham,Tone,Clear,123,3,1,0.7499115999999051,1
15099,142,Larynx,Sham,Tone,Clear,124,2,0,0.582231500000489,1
15100,142,Larynx,Sham,Tone,Clear,125,1,0,0.520295399997849,1
15101,142,Larynx,Sham,Tone,Clear,126,4,1,0.468881499997224,1
15102,142,Larynx,Sham,Tone,Clear,127,4,1,0.438388800001121,1
15103,142,Larynx,Sham,Tone,Clear,128,5,1,0.579004200000782,1
15104,142,Larynx,Sham,Tone,Clear,129,5,1,0.41856100000222796,1
15105,142,Larynx,Sham,Tone,Clear,130,5,1,0.43395629999940905,1
15106,142,Larynx,Sham,Tone,Clear,131,3,1,0.8176485000003589,1
15107,142,Larynx,Sham,Tone,Clear,132,1,0,0.522930600000109,1
15108,142,Larynx,Sham,Tone,Clear,133,1,0,0.5444588999998811,1
15109,142,Larynx,Sham,Tone,Clear,134,2,0,0.6002687000000151,1
15110,142,Larynx,Sham,Tone,Clear,135,2,1,0.768291800002771,1
15111,142,Larynx,Sham,Tone,Clear,136,2,0,0.611867199997505,1
15112,142,Larynx,Sham,Tone,Clear,137,5,1,0.472377900001447,1
15113,142,Larynx,Sham,Tone,Clear,138,5,1,0.43301400000200396,1
15114,142,Larynx,Sham,Tone,Clear,139,4,1,0.368925400001899,1
15115,142,Larynx,Sham,Tone,Clear,140,4,1,0.509214900001098,1
15116,142,Larynx,Sham,Tone,Clear,141,2,1,0.400075800000195,1
15117,142,Larynx,Sham,Tone,Clear,142,2,0,0.6285365999974599,1
15118,142,Larynx,Sham,Tone,Clear,143,4,1,0.675903000003018,1
15119,142,Larynx,Sham,Tone,Clear,144,5,1,0.676254400001199,1
15120,142,Larynx,Sham,Tone,Clear,145,3,0,0.8004701999998359,1
15121,142,Larynx,Sham,Tone,Clear,146,3,0,0.698065900000074,1
15122,142,Larynx,Sham,Tone,Clear,147,3,1,0.4078776000023939,1
15123,142,Larynx,Sham,Tone,Clear,148,3,1,0.7441371999993859,1
15124,142,Larynx,Sham,Tone,Clear,149,3,1,0.830113600000914,1
15125,142,Larynx,Sham,Tone,Clear,150,4,1,0.605691100001422,1
15126,142,Larynx,Sham,Tone,Clear,151,4,1,0.553839600001083,1
15127,142,Larynx,Sham,Tone,Clear,152,4,1,0.549799699998403,1
15128,142,Larynx,Sham,Tone,Clear,153,1,0,0.654564799999207,1
15129,142,Larynx,Sham,Tone,Clear,154,3,1,0.543077400001494,1
15130,142,Larynx,Sham,Tone,Clear,155,1,0,0.7954256000011809,1
15131,142,Larynx,Sham,Tone,Clear,156,2,0,0.6478581000010311,1
17472,201,Larynx,Right cTBS,Tone,Clear,1,2,0,1.46899439999834,1
17473,201,Larynx,Right cTBS,Tone,Clear,2,1,0,0.5580259000416851,1
17474,201,Larynx,Right cTBS,Tone,Clear,3,3,1,0.635036000050604,1
17475,201,Larynx,Right cTBS,Tone,Clear,4,4,1,0.49444630008656504,1
17476,201,Larynx,Right cTBS,Tone,Clear,5,3,1,0.778579100035131,1
17477,201,Larynx,Right cTBS,Tone,Clear,6,3,1,0.5837163999676701,1
17478,201,Larynx,Right cTBS,Tone,Clear,7,3,1,0.547499699983746,1
17479,201,Larynx,Right cTBS,Tone,Clear,8,5,1,0.556814200012013,1
17480,201,Larynx,Right cTBS,Tone,Clear,9,3,1,0.705927800037898,1
17481,201,Larynx,Right cTBS,Tone,Clear,10,5,1,0.569018200039864,1
17482,201,Larynx,Right cTBS,Tone,Clear,11,2,0,0.5630746999522671,1
17483,201,Larynx,Right cTBS,Tone,Clear,12,4,1,0.465117100044154,1
17484,201,Larynx,Right cTBS,Tone,Clear,13,1,0,0.526557600009255,1
17485,201,Larynx,Right cTBS,Tone,Clear,14,4,1,0.518714300007559,1
17486,201,Larynx,Right cTBS,Tone,Clear,15,3,1,0.977408800041303,1
17487,201,Larynx,Right cTBS,Tone,Clear,16,5,1,0.609936599968933,1
17488,201,Larynx,Right cTBS,Tone,Clear,17,2,0,0.5992776999482889,1
17489,201,Larynx,Right cTBS,Tone,Clear,18,4,1,0.4773224999662489,1
17490,201,Larynx,Right cTBS,Tone,Clear,19,4,1,0.518913200008683,1
17491,201,Larynx,Right cTBS,Tone,Clear,20,5,1,0.505636499961838,1
17492,201,Larynx,Right cTBS,Tone,Clear,21,4,1,0.45458080002572404,1
17493,201,Larynx,Right cTBS,Tone,Clear,22,5,1,0.45344359998125605,1
17494,201,Larynx,Right cTBS,Tone,Clear,23,3,1,0.738587499945425,1
17495,201,Larynx,Right cTBS,Tone,Clear,24,1,0,0.493157399934717,1
17496,201,Larynx,Right cTBS,Tone,Clear,25,3,0,0.674830200034194,1
17497,201,Larynx,Right cTBS,Tone,Clear,26,3,1,0.518439300009049,1
17498,201,Larynx,Right cTBS,Tone,Clear,27,2,0,0.630938600050285,1
17499,201,Larynx,Right cTBS,Tone,Clear,28,1,0,0.61294080002699,1
